Sample:	'20211010A(EM)
File name:	R-CDs 4 400uM.FDS
Run date:	'09:59:18, 06/09/2023
Operator:	Administrator
Comment:	'

Instrument
Model:	F-4700 FL Spectrophotometer
Serial number:	2019-001
ROM Version:	5J24010 00

Instrument parameters
Measurement type:	Wavelength scan
Scan mode:	Emission
Data mode:	Fluorescence
EX WL:	520.0 nm
EM  Start WL:	540.0 nm
EM  End WL:	800.0 nm
Scan speed:	1200 nm/min
Delay:	0.0 s
EX Slit:	10.0 nm
EM Slit:	10.0 nm
PMT Voltage:	630 V
Response:	0.002 s
Corrected spectra:	Off
Shutter control:	On

Processing performed
Savitsky-Golay smoothed
Smoothing order:	3
Number of points:	7
Number of times:	1

Peak integration
Integration method:	Rectangular
Sensitivity:	1
Threshold:	1.000

Peaks
No.	Start(nm)	Apex(nm)	End(nm)	Height(Data)	Valley(nm)	Valley(Data)
1	540.0	608.4	609.0	1634	609.0	1622
2	609.0	610.4	611.4	1652	611.4	1639
3	611.4	613.0	613.6	1676	613.6	1662
4	613.6	615.8	619.2	1691	619.2	1667
5	619.2	620.4	623.8	1682	623.8	1631
6	623.8	624.4	734.8	1648	734.8	107.9
7	734.8	735.6	752.0	113.5	752.0	57.45
8	752.0	753.0	760.0	60.16	760.0	45.16
9	760.0	760.8	761.8	47.72	761.8	41.64
10	761.8	762.8	765.2	44.64	765.2	36.92
11	765.2	765.8	768.4	39.58	768.4	33.25
12	768.4	770.6	774.0	34.50	774.0	26.81
13	774.0	776.4	777.6	30.71	777.6	24.92
14	777.6	778.4	780.2	26.68	780.2	22.79
15	780.2	780.8	784.6	24.93	784.6	20.22
16	784.6	785.2	787.0	23.01	787.0	19.93
17	787.0	787.6	789.8	21.56	789.8	18.87
18	789.8	790.4	792.0	20.38	792.0	18.28
19	792.0	793.0	796.2	19.93	796.2	16.03
20	796.2	796.8	800.0	18.12	800.0	16.72

Data points
nm	Data
540.0	240.7
540.2	249.3
540.4	252.1
540.6	251.9
540.8	253.1
541.0	254.8
541.2	260.0
541.4	265.4
541.6	266.6
541.8	266.9
542.0	265.7
542.2	266.2
542.4	266.7
542.6	266.9
542.8	267.8
543.0	267.7
543.2	271.3
543.4	275.8
543.6	277.1
543.8	280.7
544.0	287.5
544.2	288.2
544.4	290.7
544.6	290.1
544.8	289.0
545.0	287.9
545.2	290.0
545.4	290.7
545.6	292.3
545.8	298.3
546.0	301.5
546.2	306.4
546.4	308.8
546.6	310.2
546.8	312.9
547.0	315.8
547.2	315.3
547.4	318.2
547.6	317.8
547.8	320.0
548.0	321.9
548.2	323.9
548.4	324.7
548.6	329.7
548.8	331.2
549.0	336.9
549.2	339.3
549.4	342.0
549.6	342.1
549.8	343.7
550.0	343.8
550.2	347.8
550.4	352.1
550.6	354.5
550.8	355.6
551.0	355.2
551.2	356.7
551.4	357.7
551.6	361.3
551.8	360.4
552.0	358.2
552.2	361.1
552.4	369.4
552.6	372.4
552.8	374.1
553.0	373.7
553.2	371.0
553.4	374.5
553.6	383.7
553.8	387.1
554.0	389.6
554.2	393.3
554.4	393.3
554.6	393.7
554.8	396.4
555.0	399.3
555.2	402.0
555.4	403.8
555.6	404.2
555.8	404.3
556.0	404.6
556.2	410.5
556.4	411.0
556.6	413.0
556.8	418.3
557.0	422.8
557.2	425.6
557.4	427.7
557.6	424.7
557.8	420.3
558.0	423.2
558.2	430.0
558.4	434.9
558.6	441.6
558.8	448.6
559.0	450.7
559.2	454.2
559.4	455.0
559.6	454.4
559.8	455.5
560.0	461.3
560.2	464.3
560.4	470.1
560.6	473.4
560.8	477.7
561.0	477.3
561.2	478.3
561.4	474.6
561.6	484.0
561.8	497.9
562.0	506.2
562.2	507.3
562.4	505.5
562.6	504.9
562.8	509.2
563.0	518.2
563.2	520.3
563.4	520.2
563.6	522.4
563.8	529.7
564.0	531.4
564.2	538.7
564.4	543.6
564.6	549.2
564.8	557.2
565.0	560.8
565.2	558.8
565.4	555.4
565.6	554.8
565.8	560.2
566.0	569.9
566.2	576.0
566.4	583.7
566.6	592.1
566.8	598.0
567.0	601.0
567.2	600.9
567.4	600.5
567.6	603.6
567.8	609.3
568.0	613.7
568.2	615.8
568.4	618.8
568.6	624.0
568.8	632.7
569.0	638.6
569.2	640.4
569.4	642.6
569.6	646.0
569.8	650.7
570.0	658.9
570.2	667.7
570.4	667.5
570.6	672.2
570.8	676.0
571.0	681.9
571.2	685.4
571.4	691.6
571.6	693.2
571.8	703.3
572.0	709.9
572.2	718.1
572.4	723.2
572.6	725.1
572.8	719.0
573.0	723.4
573.2	727.0
573.4	738.0
573.6	750.3
573.8	758.0
574.0	764.6
574.2	771.9
574.4	772.4
574.6	777.5
574.8	785.1
575.0	787.9
575.2	798.7
575.4	802.3
575.6	800.5
575.8	803.4
576.0	815.2
576.2	825.5
576.4	843.0
576.6	843.3
576.8	844.2
577.0	840.6
577.2	841.4
577.4	847.2
577.6	862.7
577.8	868.4
578.0	880.9
578.2	890.7
578.4	901.5
578.6	907.5
578.8	910.3
579.0	911.5
579.2	913.1
579.4	915.9
579.6	920.4
579.8	923.3
580.0	931.7
580.2	945.7
580.4	955.6
580.6	966.7
580.8	970.5
581.0	971.6
581.2	979.5
581.4	985.3
581.6	990.2
581.8	998.1
582.0	1002
582.2	1003
582.4	1012
582.6	1018
582.8	1027
583.0	1032
583.2	1033
583.4	1035
583.6	1040
583.8	1048
584.0	1053
584.2	1062
584.4	1066
584.6	1080
584.8	1086
585.0	1095
585.2	1103
585.4	1105
585.6	1107
585.8	1114
586.0	1115
586.2	1120
586.4	1131
586.6	1133
586.8	1135
587.0	1138
587.2	1147
587.4	1152
587.6	1157
587.8	1165
588.0	1163
588.2	1165
588.4	1182
588.6	1191
588.8	1195
589.0	1206
589.2	1205
589.4	1208
589.6	1217
589.8	1226
590.0	1231
590.2	1243
590.4	1251
590.6	1252
590.8	1251
591.0	1253
591.2	1257
591.4	1266
591.6	1279
591.8	1287
592.0	1294
592.2	1294
592.4	1291
592.6	1292
592.8	1296
593.0	1309
593.2	1318
593.4	1327
593.6	1331
593.8	1339
594.0	1340
594.2	1341
594.4	1337
594.6	1341
594.8	1345
595.0	1356
595.2	1368
595.4	1375
595.6	1380
595.8	1390
596.0	1383
596.2	1385
596.4	1385
596.6	1384
596.8	1387
597.0	1401
597.2	1406
597.4	1422
597.6	1434
597.8	1435
598.0	1437
598.2	1447
598.4	1451
598.6	1451
598.8	1447
599.0	1445
599.2	1450
599.4	1460
599.6	1475
599.8	1482
600.0	1487
600.2	1486
600.4	1486
600.6	1490
600.8	1506
601.0	1510
601.2	1511
601.4	1504
601.6	1500
601.8	1514
602.0	1532
602.2	1538
602.4	1536
602.6	1537
602.8	1532
603.0	1539
603.2	1546
603.4	1552
603.6	1553
603.8	1563
604.0	1564
604.2	1572
604.4	1575
604.6	1572
604.8	1569
605.0	1574
605.2	1584
605.4	1586
605.6	1595
605.8	1595
606.0	1596
606.2	1596
606.4	1608
606.6	1600
606.8	1609
607.0	1610
607.2	1615
607.4	1610
607.6	1617
607.8	1622
608.0	1633
608.2	1633
608.4	1634
608.6	1624
608.8	1623
609.0	1622
609.2	1624
609.4	1625
609.6	1626
609.8	1631
610.0	1644
610.2	1651
610.4	1652
610.6	1652
610.8	1647
611.0	1646
611.2	1644
611.4	1639
611.6	1648
611.8	1654
612.0	1661
612.2	1670
612.4	1667
612.6	1661
612.8	1672
613.0	1676
613.2	1671
613.4	1669
613.6	1662
613.8	1664
614.0	1670
614.2	1673
614.4	1665
614.6	1666
614.8	1671
615.0	1672
615.2	1682
615.4	1684
615.6	1686
615.8	1691
616.0	1688
616.2	1681
616.4	1686
616.6	1684
616.8	1688
617.0	1681
617.2	1675
617.4	1670
617.6	1674
617.8	1673
618.0	1671
618.2	1669
618.4	1674
618.6	1669
618.8	1674
619.0	1670
619.2	1667
619.4	1667
619.6	1669
619.8	1673
620.0	1680
620.2	1676
620.4	1682
620.6	1674
620.8	1663
621.0	1667
621.2	1661
621.4	1660
621.6	1665
621.8	1663
622.0	1662
622.2	1664
622.4	1658
622.6	1655
622.8	1659
623.0	1650
623.2	1645
623.4	1638
623.6	1632
623.8	1631
624.0	1638
624.2	1638
624.4	1648
624.6	1647
624.8	1644
625.0	1637
625.2	1629
625.4	1625
625.6	1633
625.8	1632
626.0	1638
626.2	1631
626.4	1624
626.6	1619
626.8	1617
627.0	1610
627.2	1616
627.4	1609
627.6	1600
627.8	1597
628.0	1594
628.2	1591
628.4	1593
628.6	1589
628.8	1581
629.0	1586
629.2	1590
629.4	1590
629.6	1588
629.8	1576
630.0	1569
630.2	1571
630.4	1564
630.6	1561
630.8	1558
631.0	1549
631.2	1554
631.4	1558
631.6	1559
631.8	1555
632.0	1553
632.2	1545
632.4	1540
632.6	1530
632.8	1530
633.0	1528
633.2	1536
633.4	1535
633.6	1528
633.8	1513
634.0	1506
634.2	1501
634.4	1506
634.6	1502
634.8	1498
635.0	1497
635.2	1490
635.4	1481
635.6	1482
635.8	1474
636.0	1469
636.2	1466
636.4	1463
636.6	1455
636.8	1459
637.0	1456
637.2	1448
637.4	1440
637.6	1442
637.8	1435
638.0	1434
638.2	1431
638.4	1419
638.6	1408
638.8	1408
639.0	1410
639.2	1415
639.4	1410
639.6	1402
639.8	1389
640.0	1384
640.2	1383
640.4	1391
640.6	1389
640.8	1387
641.0	1377
641.2	1372
641.4	1363
641.6	1353
641.8	1345
642.0	1338
642.2	1336
642.4	1337
642.6	1334
642.8	1328
643.0	1322
643.2	1316
643.4	1314
643.6	1312
643.8	1300
644.0	1294
644.2	1297
644.4	1294
644.6	1297
644.8	1292
645.0	1280
645.2	1276
645.4	1270
645.6	1265
645.8	1263
646.0	1259
646.2	1259
646.4	1260
646.6	1248
646.8	1244
647.0	1243
647.2	1237
647.4	1239
647.6	1232
647.8	1228
648.0	1220
648.2	1213
648.4	1207
648.6	1205
648.8	1199
649.0	1196
649.2	1189
649.4	1182
649.6	1181
649.8	1182
650.0	1176
650.2	1171
650.4	1167
650.6	1159
650.8	1154
651.0	1154
651.2	1150
651.4	1150
651.6	1141
651.8	1133
652.0	1123
652.2	1118
652.4	1109
652.6	1102
652.8	1095
653.0	1094
653.2	1087
653.4	1088
653.6	1081
653.8	1076
654.0	1081
654.2	1079
654.4	1068
654.6	1059
654.8	1053
655.0	1050
655.2	1049
655.4	1044
655.6	1035
655.8	1032
656.0	1035
656.2	1034
656.4	1024
656.6	1015
656.8	1007
657.0	1003
657.2	994.7
657.4	986.0
657.6	978.3
657.8	976.4
658.0	976.0
658.2	969.8
658.4	966.7
658.6	964.1
658.8	962.4
659.0	969.4
659.2	968.9
659.4	963.3
659.6	958.7
659.8	952.0
660.0	943.5
660.2	941.6
660.4	933.2
660.6	927.1
660.8	917.9
661.0	915.3
661.2	914.3
661.4	915.5
661.6	913.2
661.8	904.5
662.0	900.0
662.2	895.9
662.4	888.4
662.6	888.4
662.8	883.5
663.0	874.7
663.2	873.6
663.4	872.1
663.6	866.4
663.8	866.2
664.0	857.1
664.2	850.5
664.4	843.7
664.6	839.5
664.8	836.0
665.0	830.3
665.2	824.9
665.4	829.7
665.6	831.1
665.8	830.4
666.0	829.6
666.2	823.5
666.4	817.4
666.6	811.2
666.8	804.4
667.0	801.3
667.2	799.7
667.4	794.6
667.6	794.4
667.8	788.7
668.0	783.9
668.2	779.4
668.4	765.4
668.6	754.6
668.8	754.6
669.0	757.6
669.2	757.0
669.4	752.6
669.6	743.0
669.8	737.3
670.0	735.6
670.2	738.7
670.4	734.2
670.6	725.7
670.8	720.0
671.0	716.3
671.2	715.0
671.4	715.3
671.6	710.4
671.8	705.5
672.0	702.4
672.2	705.4
672.4	699.3
672.6	689.7
672.8	682.9
673.0	678.6
673.2	674.4
673.4	678.6
673.6	673.3
673.8	667.4
674.0	670.4
674.2	664.8
674.4	663.2
674.6	661.8
674.8	655.0
675.0	645.8
675.2	641.6
675.4	632.0
675.6	637.6
675.8	636.5
676.0	635.8
676.2	630.4
676.4	625.5
676.6	623.8
676.8	621.9
677.0	614.3
677.2	610.1
677.4	607.1
677.6	605.0
677.8	606.5
678.0	599.4
678.2	592.3
678.4	587.2
678.6	586.1
678.8	581.8
679.0	585.9
679.2	585.6
679.4	576.8
679.6	568.1
679.8	562.0
680.0	554.4
680.2	558.3
680.4	561.2
680.6	557.3
680.8	555.5
681.0	551.0
681.2	544.7
681.4	542.3
681.6	541.8
681.8	538.6
682.0	537.2
682.2	533.8
682.4	529.9
682.6	525.4
682.8	521.8
683.0	517.0
683.2	516.3
683.4	516.2
683.6	514.4
683.8	508.4
684.0	504.3
684.2	500.1
684.4	499.5
684.6	499.9
684.8	495.0
685.0	488.8
685.2	489.6
685.4	486.2
685.6	485.8
685.8	482.4
686.0	476.8
686.2	476.9
686.4	480.1
686.6	477.6
686.8	471.7
687.0	458.8
687.2	451.7
687.4	456.9
687.6	462.6
687.8	463.2
688.0	453.9
688.2	441.9
688.4	436.7
688.6	441.5
688.8	445.7
689.0	444.5
689.2	440.3
689.4	436.3
689.6	433.2
689.8	426.8
690.0	424.0
690.2	417.4
690.4	416.8
690.6	420.2
690.8	421.9
691.0	420.4
691.2	420.4
691.4	410.4
691.6	407.6
691.8	407.0
692.0	402.8
692.2	402.2
692.4	400.8
692.6	395.4
692.8	397.0
693.0	395.0
693.2	391.4
693.4	388.0
693.6	384.8
693.8	381.4
694.0	379.5
694.2	379.0
694.4	377.1
694.6	374.4
694.8	374.3
695.0	375.1
695.2	374.8
695.4	373.2
695.6	367.4
695.8	360.7
696.0	355.2
696.2	356.0
696.4	359.2
696.6	359.3
696.8	357.8
697.0	351.8
697.2	348.2
697.4	348.0
697.6	347.9
697.8	346.8
698.0	344.6
698.2	340.3
698.4	338.6
698.6	335.5
698.8	335.3
699.0	337.3
699.2	340.1
699.4	340.1
699.6	336.7
699.8	330.2
700.0	326.7
700.2	323.6
700.4	322.1
700.6	324.1
700.8	319.9
701.0	317.5
701.2	316.9
701.4	315.8
701.6	316.9
701.8	317.4
702.0	311.1
702.2	307.9
702.4	306.4
702.6	303.1
702.8	305.1
703.0	302.6
703.2	303.1
703.4	301.1
703.6	302.0
703.8	300.5
704.0	300.3
704.2	295.6
704.4	293.8
704.6	288.1
704.8	287.9
705.0	288.7
705.2	288.1
705.4	284.1
705.6	280.3
705.8	277.3
706.0	277.3
706.2	280.5
706.4	285.6
706.6	284.1
706.8	282.1
707.0	275.3
707.2	269.0
707.4	267.0
707.6	267.2
707.8	266.3
708.0	268.0
708.2	263.8
708.4	260.6
708.6	257.8
708.8	257.8
709.0	258.0
709.2	261.6
709.4	264.0
709.6	257.9
709.8	250.0
710.0	248.5
710.2	245.6
710.4	247.4
710.6	251.0
710.8	245.9
711.0	242.0
711.2	240.7
711.4	239.1
711.6	240.2
711.8	239.9
712.0	238.6
712.2	237.9
712.4	238.7
712.6	237.5
712.8	232.9
713.0	226.7
713.2	225.3
713.4	224.0
713.6	225.8
713.8	228.6
714.0	225.0
714.2	220.7
714.4	218.6
714.6	214.5
714.8	211.6
715.0	214.9
715.2	215.4
715.4	216.0
715.6	217.7
715.8	215.7
716.0	215.5
716.2	214.3
716.4	209.3
716.6	203.6
716.8	199.6
717.0	195.7
717.2	198.3
717.4	199.2
717.6	197.2
717.8	194.7
718.0	193.3
718.2	191.2
718.4	192.2
718.6	191.5
718.8	191.0
719.0	191.5
719.2	192.5
719.4	189.9
719.6	187.9
719.8	185.1
720.0	181.4
720.2	181.7
720.4	181.3
720.6	180.9
720.8	179.2
721.0	176.4
721.2	171.4
721.4	170.7
721.6	169.8
721.8	172.4
722.0	172.4
722.2	171.2
722.4	169.1
722.6	165.5
722.8	164.4
723.0	162.9
723.2	163.1
723.4	161.9
723.6	162.6
723.8	161.1
724.0	160.1
724.2	158.6
724.4	157.8
724.6	158.3
724.8	160.3
725.0	158.2
725.2	153.6
725.4	151.1
725.6	148.0
725.8	149.3
726.0	151.3
726.2	150.9
726.4	147.8
726.6	146.1
726.8	143.7
727.0	143.3
727.2	143.6
727.4	141.9
727.6	139.4
727.8	138.6
728.0	139.5
728.2	139.8
728.4	139.3
728.6	137.5
728.8	135.4
729.0	133.5
729.2	135.7
729.4	132.0
729.6	130.0
729.8	129.9
730.0	129.6
730.2	129.0
730.4	130.6
730.6	128.5
730.8	127.2
731.0	127.2
731.2	125.7
731.4	123.8
731.6	122.9
731.8	122.5
732.0	120.5
732.2	120.7
732.4	120.7
732.6	121.0
732.8	121.4
733.0	118.6
733.2	116.9
733.4	115.4
733.6	114.4
733.8	114.3
734.0	113.0
734.2	110.2
734.4	110.9
734.6	109.5
734.8	107.9
735.0	109.5
735.2	111.5
735.4	113.0
735.6	113.5
735.8	110.9
736.0	104.3
736.2	102.6
736.4	103.7
736.6	104.1
736.8	104.3
737.0	103.9
737.2	100.9
737.4	100.7
737.6	100.4
737.8	98.23
738.0	97.54
738.2	98.86
738.4	99.17
738.6	98.53
738.8	97.46
739.0	96.86
739.2	95.43
739.4	95.66
739.6	96.12
739.8	95.74
740.0	94.64
740.2	92.56
740.4	88.96
740.6	85.32
740.8	83.93
741.0	86.18
741.2	86.98
741.4	87.87
741.6	88.32
741.8	86.21
742.0	83.99
742.2	83.42
742.4	82.88
742.6	82.79
742.8	81.86
743.0	80.71
743.2	80.63
743.4	81.32
743.6	81.14
743.8	81.75
744.0	79.97
744.2	78.02
744.4	77.16
744.6	78.68
744.8	79.08
745.0	80.84
745.2	79.55
745.4	77.84
745.6	76.62
745.8	77.33
746.0	77.83
746.2	78.66
746.4	77.67
746.6	75.65
746.8	74.25
747.0	73.07
747.2	72.91
747.4	73.39
747.6	74.57
747.8	73.54
748.0	73.33
748.2	71.90
748.4	70.91
748.6	68.77
748.8	68.01
749.0	66.29
749.2	66.26
749.4	66.35
749.6	66.80
749.8	67.09
750.0	66.64
750.2	65.53
750.4	63.24
750.6	62.27
750.8	60.87
751.0	62.28
751.2	63.17
751.4	62.00
751.6	60.14
751.8	58.83
752.0	57.45
752.2	58.01
752.4	59.89
752.6	59.92
752.8	59.57
753.0	60.16
753.2	58.70
753.4	58.08
753.6	57.19
753.8	56.35
754.0	55.85
754.2	56.85
754.4	56.22
754.6	57.38
754.8	55.97
755.0	56.35
755.2	55.09
755.4	54.69
755.6	54.16
755.8	53.21
756.0	51.96
756.2	52.48
756.4	50.73
756.6	50.89
756.8	51.69
757.0	51.38
757.2	51.91
757.4	52.87
757.6	51.81
757.8	50.81
758.0	50.69
758.2	49.58
758.4	50.39
758.6	50.95
758.8	50.33
759.0	49.74
759.2	48.83
759.4	46.52
759.6	46.25
759.8	45.97
760.0	45.16
760.2	46.04
760.4	46.99
760.6	47.43
760.8	47.72
761.0	47.11
761.2	44.83
761.4	43.87
761.6	42.68
761.8	41.64
762.0	42.03
762.2	42.63
762.4	42.92
762.6	44.48
762.8	44.64
763.0	43.44
763.2	43.05
763.4	42.04
763.6	41.78
763.8	42.02
764.0	42.97
764.2	42.93
764.4	42.99
764.6	41.98
764.8	40.22
765.0	37.53
765.2	36.92
765.4	37.43
765.6	38.91
765.8	39.58
766.0	39.08
766.2	38.17
766.4	37.42
766.6	38.23
766.8	38.32
767.0	38.38
767.2	37.75
767.4	36.86
767.6	35.63
767.8	34.59
768.0	34.49
768.2	33.98
768.4	33.25
768.6	33.56
768.8	34.18
769.0	33.56
769.2	34.81
769.4	34.48
769.6	33.88
769.8	34.33
770.0	34.30
770.2	33.37
770.4	33.72
770.6	34.50
770.8	34.00
771.0	33.22
771.2	32.57
771.4	32.02
771.6	31.40
771.8	30.87
772.0	30.26
772.2	29.89
772.4	30.28
772.6	30.45
772.8	29.26
773.0	29.15
773.2	29.67
773.4	29.76
773.6	29.13
773.8	27.53
774.0	26.81
774.2	27.76
774.4	28.49
774.6	28.44
774.8	28.54
775.0	28.20
775.2	29.28
775.4	28.62
775.6	28.87
775.8	28.08
776.0	29.25
776.2	30.23
776.4	30.71
776.6	29.41
776.8	28.64
777.0	27.41
777.2	26.67
777.4	25.64
777.6	24.92
777.8	25.28
778.0	25.54
778.2	26.48
778.4	26.68
778.6	25.73
778.8	24.99
779.0	25.86
779.2	25.78
779.4	25.74
779.6	25.77
779.8	24.71
780.0	23.42
780.2	22.79
780.4	23.57
780.6	24.00
780.8	24.93
781.0	24.72
781.2	24.55
781.4	23.49
781.6	23.47
781.8	23.17
782.0	23.22
782.2	23.19
782.4	24.23
782.6	24.23
782.8	24.06
783.0	22.88
783.2	21.89
783.4	21.24
783.6	21.91
783.8	22.33
784.0	22.52
784.2	21.06
784.4	20.30
784.6	20.22
784.8	21.68
785.0	22.55
785.2	23.01
785.4	22.68
785.6	22.08
785.8	22.13
786.0	21.75
786.2	20.99
786.4	20.68
786.6	20.51
786.8	19.95
787.0	19.93
787.2	20.26
787.4	20.99
787.6	21.56
787.8	21.49
788.0	21.06
788.2	20.42
788.4	20.82
788.6	20.49
788.8	19.96
789.0	19.74
789.2	19.29
789.4	19.27
789.6	19.42
789.8	18.87
790.0	19.40
790.2	20.03
790.4	20.38
790.6	20.05
790.8	19.17
791.0	19.29
791.2	19.59
791.4	19.41
791.6	19.61
791.8	18.66
792.0	18.28
792.2	18.31
792.4	18.77
792.6	19.13
792.8	19.70
793.0	19.93
793.2	19.41
793.4	18.38
793.6	17.69
793.8	17.68
794.0	17.71
794.2	18.84
794.4	19.29
794.6	19.58
794.8	18.07
795.0	17.33
795.2	16.22
795.4	16.63
795.6	17.15
795.8	17.32
796.0	16.65
796.2	16.03
796.4	16.13
796.6	16.81
796.8	18.12
797.0	17.89
797.2	17.68
797.4	16.80
797.6	16.62
797.8	16.93
798.0	17.80
798.2	16.83
798.4	16.06
798.6	15.88
798.8	16.00
799.0	16.34
799.2	17.03
799.4	16.37
799.6	15.93
799.8	15.93
800.0	16.72

