Sample:	'20211010A(EM)
File name:	G-NI 5.FDS
Run date:	'17:28:13, 06/19/2023
Operator:	Administrator
Comment:	'

Instrument
Model:	F-4700 FL Spectrophotometer
Serial number:	2019-001
ROM Version:	5J24010 00

Instrument parameters
Measurement type:	Wavelength scan
Scan mode:	Emission
Data mode:	Fluorescence
EX WL:	400.0 nm
EM  Start WL:	420.0 nm
EM  End WL:	800.0 nm
Scan speed:	1200 nm/min
Delay:	0.0 s
EX Slit:	10.0 nm
EM Slit:	10.0 nm
PMT Voltage:	500 V
Response:	0.002 s
Corrected spectra:	Off
Shutter control:	On

Processing performed
Savitsky-Golay smoothed
Smoothing order:	3
Number of points:	7
Number of times:	1

Peak integration
Integration method:	Rectangular
Sensitivity:	1
Threshold:	1.000

Peaks
No.	Start(nm)	Apex(nm)	End(nm)	Height(Data)	Valley(nm)	Valley(Data)
1	420.0	533.8	534.6	442.3	534.6	437.6
2	534.6	538.0	540.0	450.9	540.0	441.2
3	540.0	540.8	542.4	448.2	542.4	443.5
4	542.4	543.2	549.4	448.3	549.4	423.3
5	549.4	550.2	637.2	428.9	637.2	68.90
6	637.2	638.0	677.0	70.31	677.0	20.12
7	677.0	677.6	690.6	21.58	690.6	12.58
8	690.6	691.2	692.8	14.21	692.8	11.93
9	692.8	693.6	800.0	13.01	800.0	1.220

Data points
nm	Data
420.0	0.485
420.2	0.717
420.4	0.728
420.6	0.636
420.8	0.594
421.0	0.696
421.2	0.844
421.4	0.888
421.6	0.980
421.8	0.861
422.0	0.732
422.2	0.770
422.4	0.720
422.6	0.593
422.8	0.697
423.0	0.635
423.2	0.596
423.4	0.713
423.6	0.686
423.8	0.686
424.0	0.793
424.2	0.743
424.4	0.710
424.6	0.667
424.8	0.615
425.0	0.709
425.2	0.668
425.4	0.591
425.6	0.506
425.8	0.492
426.0	0.573
426.2	0.667
426.4	0.782
426.6	0.759
426.8	0.780
427.0	0.781
427.2	0.787
427.4	0.712
427.6	0.765
427.8	0.800
428.0	0.844
428.2	0.786
428.4	0.798
428.6	0.728
428.8	0.636
429.0	0.607
429.2	0.455
429.4	0.364
429.6	0.377
429.8	0.467
430.0	0.490
430.2	0.619
430.4	0.621
430.6	0.650
430.8	0.623
431.0	0.633
431.2	0.512
431.4	0.513
431.6	0.509
431.8	0.566
432.0	0.638
432.2	0.682
432.4	0.612
432.6	0.418
432.8	0.401
433.0	0.373
433.2	0.505
433.4	0.665
433.6	0.629
433.8	0.618
434.0	0.674
434.2	0.639
434.4	0.627
434.6	0.700
434.8	0.637
435.0	0.725
435.2	0.577
435.4	0.569
435.6	0.469
435.8	0.495
436.0	0.602
436.2	0.662
436.4	0.526
436.6	0.704
436.8	0.719
437.0	0.724
437.2	0.763
437.4	0.736
437.6	0.591
437.8	0.570
438.0	0.556
438.2	0.645
438.4	0.697
438.6	0.675
438.8	0.555
439.0	0.502
439.2	0.616
439.4	0.846
439.6	0.933
439.8	0.881
440.0	0.680
440.2	0.655
440.4	0.705
440.6	0.733
440.8	0.797
441.0	0.810
441.2	0.744
441.4	0.740
441.6	0.627
441.8	0.547
442.0	0.582
442.2	0.603
442.4	0.646
442.6	0.696
442.8	0.633
443.0	0.555
443.2	0.567
443.4	0.589
443.6	0.581
443.8	0.653
444.0	0.606
444.2	0.626
444.4	0.704
444.6	0.691
444.8	0.619
445.0	0.642
445.2	0.701
445.4	0.859
445.6	0.774
445.8	0.708
446.0	0.540
446.2	0.435
446.4	0.463
446.6	0.582
446.8	0.461
447.0	0.570
447.2	0.580
447.4	0.654
447.6	0.703
447.8	0.781
448.0	0.642
448.2	0.634
448.4	0.600
448.6	0.579
448.8	0.548
449.0	0.596
449.2	0.598
449.4	0.640
449.6	0.638
449.8	0.595
450.0	0.597
450.2	0.787
450.4	0.831
450.6	0.821
450.8	0.694
451.0	0.590
451.2	0.567
451.4	0.615
451.6	0.647
451.8	0.790
452.0	0.882
452.2	0.869
452.4	0.895
452.6	0.676
452.8	0.592
453.0	0.536
453.2	0.586
453.4	0.547
453.6	0.643
453.8	0.722
454.0	0.745
454.2	0.679
454.4	0.682
454.6	0.642
454.8	0.629
455.0	0.692
455.2	0.618
455.4	0.629
455.6	0.630
455.8	0.635
456.0	0.583
456.2	0.657
456.4	0.629
456.6	0.686
456.8	0.795
457.0	0.738
457.2	0.684
457.4	0.700
457.6	0.658
457.8	0.597
458.0	0.641
458.2	0.556
458.4	0.569
458.6	0.635
458.8	0.727
459.0	0.756
459.2	0.723
459.4	0.672
459.6	0.589
459.8	0.618
460.0	0.704
460.2	0.803
460.4	0.825
460.6	0.855
460.8	0.765
461.0	0.709
461.2	0.663
461.4	0.640
461.6	0.671
461.8	0.606
462.0	0.661
462.2	0.686
462.4	0.765
462.6	0.955
462.8	1.093
463.0	0.986
463.2	0.959
463.4	0.883
463.6	0.835
463.8	0.874
464.0	0.978
464.2	0.919
464.4	0.843
464.6	0.760
464.8	0.711
465.0	0.714
465.2	0.877
465.4	1.077
465.6	1.174
465.8	1.338
466.0	1.350
466.2	1.275
466.4	1.049
466.6	1.060
466.8	1.079
467.0	1.216
467.2	1.229
467.4	1.196
467.6	0.933
467.8	0.913
468.0	0.915
468.2	0.879
468.4	0.964
468.6	1.161
468.8	1.286
469.0	1.383
469.2	1.394
469.4	1.382
469.6	1.319
469.8	1.392
470.0	1.314
470.2	1.247
470.4	1.349
470.6	1.389
470.8	1.540
471.0	1.679
471.2	1.605
471.4	1.689
471.6	1.841
471.8	1.767
472.0	1.907
472.2	1.903
472.4	1.877
472.6	1.904
472.8	2.092
473.0	2.092
473.2	2.210
473.4	2.178
473.6	2.180
473.8	2.156
474.0	2.277
474.2	2.354
474.4	2.445
474.6	2.289
474.8	2.015
475.0	2.077
475.2	2.235
475.4	2.516
475.6	2.784
475.8	2.797
476.0	2.706
476.2	2.986
476.4	3.276
476.6	3.405
476.8	3.626
477.0	3.693
477.2	3.639
477.4	3.763
477.6	3.840
477.8	3.993
478.0	4.069
478.2	4.262
478.4	4.309
478.6	4.503
478.8	4.806
479.0	5.321
479.2	5.474
479.4	5.543
479.6	5.433
479.8	5.324
480.0	5.722
480.2	5.897
480.4	6.292
480.6	6.354
480.8	6.593
481.0	6.991
481.2	7.557
481.4	7.730
481.6	7.835
481.8	7.933
482.0	8.152
482.2	8.521
482.4	8.741
482.6	9.149
482.8	9.215
483.0	9.761
483.2	10.17
483.4	10.44
483.6	10.52
483.8	10.94
484.0	11.37
484.2	11.84
484.4	12.42
484.6	12.63
484.8	12.77
485.0	13.12
485.2	13.75
485.4	13.89
485.6	14.82
485.8	15.31
486.0	15.74
486.2	16.27
486.4	16.40
486.6	16.25
486.8	17.32
487.0	18.50
487.2	19.74
487.4	20.68
487.6	20.49
487.8	20.42
488.0	21.25
488.2	22.15
488.4	22.74
488.6	23.37
488.8	23.95
489.0	24.86
489.2	25.91
489.4	26.48
489.6	26.84
489.8	27.89
490.0	29.41
490.2	30.78
490.4	31.61
490.6	31.66
490.8	32.24
491.0	32.69
491.2	33.39
491.4	34.67
491.6	36.06
491.8	37.05
492.0	38.93
492.2	39.16
492.4	39.19
492.6	39.47
492.8	41.01
493.0	42.54
493.2	44.61
493.4	46.32
493.6	48.22
493.8	49.47
494.0	51.05
494.2	51.61
494.4	52.62
494.6	53.48
494.8	54.43
495.0	55.41
495.2	56.90
495.4	57.91
495.6	60.57
495.8	62.53
496.0	64.11
496.2	65.53
496.4	67.23
496.6	68.27
496.8	69.50
497.0	70.15
497.2	71.47
497.4	73.72
497.6	75.92
497.8	78.25
498.0	79.44
498.2	80.83
498.4	82.57
498.6	84.77
498.8	86.63
499.0	88.28
499.2	90.79
499.4	94.11
499.6	96.49
499.8	98.55
500.0	100.7
500.2	100.8
500.4	102.3
500.6	104.0
500.8	105.9
501.0	108.5
501.2	111.9
501.4	113.6
501.6	117.3
501.8	119.7
502.0	122.2
502.2	124.5
502.4	126.9
502.6	128.2
502.8	131.1
503.0	132.9
503.2	134.1
503.4	136.1
503.6	138.5
503.8	141.5
504.0	144.1
504.2	146.7
504.4	148.0
504.6	150.7
504.8	153.7
505.0	157.0
505.2	159.0
505.4	161.1
505.6	162.3
505.8	165.0
506.0	168.6
506.2	171.9
506.4	176.4
506.6	179.8
506.8	182.5
507.0	183.9
507.2	186.2
507.4	187.5
507.6	190.4
507.8	194.0
508.0	196.1
508.2	199.0
508.4	202.1
508.6	204.7
508.8	206.8
509.0	209.8
509.2	211.3
509.4	215.8
509.6	220.8
509.8	225.5
510.0	226.6
510.2	228.0
510.4	227.0
510.6	229.3
510.8	233.8
511.0	238.4
511.2	241.7
511.4	244.9
511.6	245.7
511.8	249.1
512.0	253.7
512.2	257.3
512.4	259.9
512.6	261.1
512.8	261.3
513.0	261.9
513.2	264.8
513.4	266.4
513.6	270.9
513.8	275.0
514.0	278.1
514.2	279.9
514.4	281.9
514.6	282.1
514.8	285.5
515.0	287.7
515.2	292.2
515.4	296.6
515.6	301.2
515.8	304.5
516.0	307.8
516.2	307.9
516.4	308.7
516.6	311.0
516.8	311.9
517.0	315.2
517.2	319.9
517.4	321.8
517.6	323.1
517.8	327.3
518.0	329.4
518.2	332.0
518.4	335.0
518.6	335.2
518.8	334.6
519.0	336.1
519.2	339.9
519.4	343.2
519.6	345.6
519.8	347.3
520.0	349.3
520.2	351.9
520.4	356.2
520.6	360.2
520.8	360.5
521.0	359.1
521.2	359.8
521.4	361.5
521.6	364.4
521.8	371.7
522.0	377.4
522.2	379.5
522.4	378.5
522.6	378.4
522.8	380.0
523.0	383.4
523.2	387.8
523.4	389.5
523.6	386.7
523.8	388.3
524.0	389.9
524.2	390.9
524.4	392.7
524.6	393.5
524.8	392.8
525.0	397.2
525.2	400.2
525.4	403.3
525.6	404.8
525.8	405.3
526.0	406.2
526.2	407.3
526.4	410.5
526.6	411.5
526.8	410.9
527.0	409.1
527.2	411.8
527.4	414.7
527.6	418.7
527.8	418.8
528.0	418.0
528.2	415.5
528.4	416.0
528.6	419.7
528.8	421.7
529.0	423.8
529.2	424.3
529.4	425.7
529.6	428.0
529.8	430.8
530.0	430.9
530.2	431.5
530.4	427.6
530.6	428.3
530.8	429.9
531.0	431.7
531.2	430.5
531.4	431.4
531.6	431.7
531.8	432.8
532.0	434.1
532.2	436.6
532.4	434.6
532.6	435.0
532.8	437.2
533.0	437.7
533.2	439.8
533.4	441.7
533.6	441.6
533.8	442.3
534.0	440.7
534.2	439.8
534.4	438.5
534.6	437.6
534.8	438.8
535.0	440.1
535.2	441.7
535.4	446.7
535.6	448.2
535.8	448.5
536.0	447.2
536.2	445.8
536.4	446.8
536.6	448.5
536.8	448.7
537.0	448.4
537.2	447.1
537.4	447.6
537.6	449.5
537.8	449.9
538.0	450.9
538.2	450.9
538.4	449.6
538.6	446.8
538.8	444.9
539.0	445.2
539.2	448.2
539.4	448.1
539.6	447.6
539.8	444.2
540.0	441.2
540.2	444.4
540.4	446.9
540.6	446.3
540.8	448.2
541.0	446.9
541.2	445.0
541.4	446.6
541.6	445.3
541.8	445.0
542.0	445.8
542.2	443.6
542.4	443.5
542.6	443.7
542.8	444.9
543.0	446.4
543.2	448.3
543.4	448.1
543.6	448.1
543.8	445.3
544.0	443.9
544.2	442.1
544.4	442.1
544.6	441.9
544.8	441.1
545.0	439.5
545.2	437.6
545.4	437.2
545.6	437.2
545.8	438.6
546.0	440.6
546.2	440.7
546.4	438.9
546.6	437.1
546.8	436.5
547.0	439.3
547.2	440.2
547.4	438.2
547.6	436.4
547.8	431.9
548.0	432.2
548.2	434.8
548.4	436.4
548.6	435.5
548.8	433.6
549.0	427.6
549.2	424.5
549.4	423.3
549.6	425.3
549.8	427.7
550.0	428.0
550.2	428.9
550.4	428.3
550.6	428.1
550.8	426.6
551.0	426.8
551.2	424.6
551.4	424.2
551.6	420.9
551.8	420.5
552.0	417.8
552.2	419.5
552.4	421.5
552.6	420.5
552.8	418.3
553.0	418.0
553.2	417.8
553.4	419.9
553.6	419.2
553.8	415.4
554.0	412.5
554.2	411.0
554.4	411.6
554.6	411.7
554.8	411.9
555.0	412.0
555.2	412.0
555.4	411.2
555.6	408.0
555.8	405.2
556.0	402.9
556.2	402.6
556.4	401.2
556.6	399.7
556.8	399.0
557.0	399.7
557.2	397.3
557.4	399.2
557.6	398.5
557.8	398.5
558.0	398.9
558.2	397.9
558.4	394.9
558.6	393.8
558.8	393.1
559.0	393.4
559.2	393.0
559.4	390.8
559.6	387.7
559.8	384.9
560.0	385.2
560.2	384.3
560.4	384.4
560.6	384.1
560.8	383.4
561.0	382.3
561.2	382.9
561.4	380.7
561.6	379.3
561.8	377.7
562.0	377.8
562.2	376.5
562.4	376.7
562.6	376.1
562.8	376.9
563.0	376.9
563.2	376.8
563.4	372.9
563.6	370.0
563.8	369.3
564.0	370.0
564.2	369.2
564.4	366.9
564.6	364.8
564.8	362.7
565.0	363.8
565.2	364.5
565.4	361.2
565.6	359.6
565.8	359.4
566.0	357.2
566.2	359.3
566.4	359.8
566.6	357.0
566.8	356.5
567.0	354.8
567.2	349.1
567.4	346.8
567.6	346.5
567.8	346.7
568.0	347.3
568.2	346.4
568.4	342.4
568.6	339.4
568.8	340.0
569.0	342.9
569.2	342.0
569.4	341.4
569.6	338.8
569.8	336.2
570.0	334.2
570.2	333.6
570.4	331.6
570.6	331.8
570.8	329.8
571.0	330.6
571.2	330.9
571.4	328.2
571.6	326.2
571.8	325.1
572.0	323.4
572.2	325.2
572.4	325.7
572.6	323.3
572.8	320.7
573.0	320.2
573.2	318.6
573.4	319.0
573.6	316.6
573.8	315.0
574.0	314.2
574.2	315.1
574.4	314.1
574.6	312.4
574.8	311.4
575.0	311.2
575.2	310.8
575.4	309.6
575.6	306.4
575.8	303.3
576.0	302.9
576.2	303.2
576.4	303.4
576.6	301.2
576.8	299.1
577.0	297.8
577.2	297.1
577.4	296.9
577.6	297.0
577.8	295.0
578.0	294.1
578.2	292.4
578.4	291.0
578.6	291.0
578.8	289.7
579.0	288.8
579.2	288.9
579.4	288.2
579.6	285.7
579.8	285.1
580.0	283.8
580.2	283.6
580.4	283.3
580.6	282.9
580.8	279.2
581.0	277.5
581.2	276.9
581.4	276.7
581.6	275.7
581.8	274.0
582.0	272.5
582.2	271.9
582.4	272.4
582.6	273.5
582.8	272.2
583.0	269.0
583.2	266.8
583.4	264.2
583.6	264.2
583.8	264.6
584.0	263.1
584.2	261.6
584.4	259.0
584.6	259.3
584.8	260.9
585.0	259.0
585.2	256.6
585.4	254.2
585.6	251.2
585.8	252.1
586.0	252.0
586.2	249.6
586.4	249.2
586.6	247.7
586.8	248.2
587.0	247.4
587.2	246.4
587.4	245.8
587.6	246.1
587.8	244.2
588.0	243.0
588.2	241.9
588.4	241.3
588.6	241.1
588.8	240.9
589.0	238.8
589.2	235.6
589.4	234.9
589.6	234.1
589.8	232.9
590.0	233.0
590.2	231.3
590.4	229.5
590.6	228.3
590.8	227.8
591.0	227.1
591.2	226.9
591.4	225.9
591.6	224.6
591.8	222.8
592.0	220.8
592.2	218.8
592.4	219.0
592.6	218.5
592.8	218.6
593.0	218.7
593.2	217.4
593.4	215.0
593.6	215.0
593.8	213.7
594.0	214.0
594.2	213.1
594.4	213.2
594.6	212.1
594.8	211.4
595.0	210.5
595.2	209.1
595.4	207.0
595.6	207.3
595.8	205.7
596.0	204.7
596.2	202.4
596.4	200.1
596.6	197.8
596.8	198.0
597.0	197.0
597.2	197.2
597.4	196.3
597.6	197.9
597.8	197.5
598.0	198.5
598.2	196.7
598.4	194.5
598.6	192.0
598.8	190.6
599.0	189.9
599.2	189.7
599.4	190.3
599.6	190.5
599.8	190.7
600.0	189.5
600.2	189.0
600.4	186.4
600.6	185.4
600.8	182.5
601.0	180.5
601.2	180.7
601.4	181.3
601.6	181.4
601.8	182.1
602.0	180.6
602.2	179.0
602.4	178.9
602.6	178.6
602.8	176.7
603.0	175.3
603.2	173.9
603.4	174.1
603.6	173.4
603.8	173.8
604.0	172.0
604.2	171.1
604.4	169.7
604.6	169.6
604.8	167.6
605.0	167.0
605.2	164.9
605.4	163.8
605.6	162.5
605.8	161.5
606.0	161.9
606.2	161.4
606.4	160.7
606.6	160.0
606.8	159.0
607.0	157.6
607.2	157.8
607.4	158.5
607.6	157.5
607.8	157.0
608.0	156.0
608.2	155.1
608.4	155.0
608.6	155.5
608.8	152.7
609.0	152.7
609.2	152.1
609.4	150.6
609.6	149.5
609.8	148.6
610.0	146.8
610.2	145.4
610.4	145.3
610.6	143.6
610.8	143.8
611.0	143.8
611.2	143.6
611.4	143.1
611.6	143.9
611.8	142.2
612.0	141.2
612.2	138.5
612.4	136.6
612.6	136.2
612.8	136.6
613.0	137.0
613.2	136.7
613.4	136.4
613.6	135.6
613.8	135.1
614.0	134.0
614.2	133.2
614.4	131.8
614.6	132.3
614.8	132.1
615.0	131.8
615.2	131.0
615.4	130.0
615.6	129.6
615.8	129.5
616.0	128.3
616.2	127.3
616.4	126.2
616.6	124.7
616.8	125.2
617.0	125.2
617.2	124.5
617.4	124.1
617.6	125.1
617.8	124.4
618.0	124.3
618.2	123.3
618.4	121.2
618.6	119.5
618.8	119.8
619.0	119.6
619.2	118.5
619.4	117.0
619.6	116.0
619.8	115.8
620.0	115.7
620.2	116.2
620.4	114.0
620.6	111.7
620.8	110.8
621.0	110.2
621.2	109.7
621.4	110.2
621.6	110.0
621.8	110.4
622.0	110.3
622.2	109.5
622.4	108.5
622.6	108.1
622.8	108.6
623.0	107.8
623.2	106.7
623.4	105.2
623.6	104.4
623.8	104.3
624.0	103.2
624.2	101.0
624.4	100.7
624.6	101.4
624.8	102.7
625.0	103.8
625.2	102.3
625.4	100.0
625.6	98.76
625.8	98.10
626.0	97.58
626.2	97.87
626.4	98.52
626.6	98.59
626.8	97.98
627.0	97.24
627.2	94.50
627.4	92.84
627.6	92.13
627.8	92.28
628.0	92.46
628.2	92.15
628.4	92.43
628.6	91.03
628.8	89.72
629.0	89.19
629.2	89.58
629.4	89.29
629.6	90.55
629.8	89.40
630.0	88.28
630.2	87.23
630.4	87.63
630.6	88.03
630.8	87.59
631.0	87.06
631.2	85.68
631.4	84.08
631.6	83.43
631.8	82.07
632.0	81.63
632.2	80.78
632.4	80.94
632.6	80.36
632.8	80.77
633.0	80.65
633.2	80.96
633.4	80.44
633.6	80.62
633.8	79.02
634.0	77.42
634.2	76.13
634.4	75.38
634.6	75.71
634.8	75.82
635.0	76.19
635.2	75.86
635.4	75.65
635.6	74.84
635.8	74.57
636.0	74.17
636.2	74.33
636.4	73.69
636.6	72.83
636.8	70.86
637.0	69.40
637.2	68.90
637.4	69.23
637.6	69.55
637.8	69.87
638.0	70.31
638.2	70.07
638.4	70.24
638.6	70.19
638.8	68.92
639.0	67.12
639.2	66.06
639.4	64.65
639.6	64.85
639.8	65.17
640.0	65.29
640.2	65.31
640.4	65.85
640.6	65.47
640.8	65.02
641.0	64.13
641.2	63.28
641.4	63.29
641.6	63.42
641.8	63.46
642.0	62.78
642.2	61.26
642.4	60.70
642.6	61.06
642.8	61.16
643.0	62.05
643.2	62.06
643.4	61.35
643.6	60.28
643.8	59.33
644.0	57.42
644.2	57.42
644.4	56.66
644.6	57.27
644.8	57.59
645.0	57.62
645.2	56.89
645.4	57.00
645.6	55.37
645.8	54.49
646.0	54.10
646.2	53.83
646.4	54.34
646.6	54.66
646.8	54.08
647.0	53.50
647.2	52.82
647.4	52.47
647.6	52.99
647.8	52.57
648.0	52.01
648.2	51.65
648.4	50.35
648.6	49.53
648.8	49.40
649.0	48.36
649.2	49.33
649.4	49.68
649.6	49.52
649.8	49.17
650.0	48.57
650.2	47.71
650.4	47.79
650.6	47.77
650.8	47.27
651.0	46.36
651.2	45.82
651.4	45.65
651.6	46.08
651.8	47.14
652.0	47.08
652.2	47.08
652.4	46.15
652.6	44.90
652.8	44.74
653.0	44.57
653.2	44.15
653.4	44.53
653.6	44.29
653.8	43.67
654.0	43.59
654.2	43.30
654.4	42.97
654.6	42.66
654.8	42.74
655.0	41.82
655.2	41.49
655.4	41.81
655.6	41.29
655.8	40.42
656.0	40.08
656.2	39.36
656.4	39.56
656.6	40.46
656.8	40.03
657.0	39.71
657.2	39.32
657.4	38.58
657.6	38.11
657.8	36.81
658.0	36.25
658.2	36.52
658.4	37.49
658.6	37.66
658.8	38.05
659.0	36.96
659.2	36.32
659.4	36.00
659.6	35.85
659.8	35.87
660.0	36.22
660.2	36.35
660.4	35.99
660.6	35.53
660.8	34.57
661.0	34.06
661.2	33.98
661.4	34.30
661.6	34.44
661.8	33.73
662.0	32.62
662.2	32.20
662.4	32.71
662.6	33.25
662.8	33.73
663.0	33.06
663.2	32.32
663.4	31.99
663.6	31.88
663.8	31.52
664.0	31.65
664.2	31.63
664.4	31.51
664.6	31.43
664.8	31.22
665.0	30.69
665.2	30.48
665.4	29.91
665.6	29.32
665.8	29.17
666.0	28.73
666.2	28.32
666.4	28.37
666.6	28.32
666.8	28.44
667.0	28.99
667.2	29.08
667.4	29.26
667.6	29.05
667.8	28.51
668.0	28.57
668.2	28.01
668.4	28.04
668.6	27.28
668.8	26.38
669.0	25.98
669.2	26.63
669.4	26.91
669.6	27.15
669.8	27.08
670.0	26.92
670.2	26.12
670.4	25.40
670.6	25.22
670.8	24.47
671.0	24.48
671.2	25.00
671.4	24.52
671.6	24.33
671.8	24.70
672.0	24.29
672.2	23.91
672.4	24.28
672.6	23.68
672.8	23.87
673.0	24.15
673.2	24.08
673.4	24.11
673.6	23.82
673.8	23.62
674.0	23.22
674.2	22.90
674.4	22.55
674.6	22.26
674.8	21.87
675.0	21.86
675.2	21.21
675.4	21.17
675.6	20.91
675.8	20.79
676.0	20.77
676.2	20.68
676.4	20.65
676.6	20.42
676.8	20.23
677.0	20.12
677.2	20.59
677.4	21.10
677.6	21.58
677.8	21.20
678.0	20.47
678.2	19.61
678.4	19.45
678.6	19.54
678.8	19.79
679.0	19.69
679.2	19.21
679.4	18.67
679.6	18.35
679.8	18.54
680.0	18.71
680.2	18.13
680.4	18.03
680.6	18.17
680.8	18.33
681.0	18.43
681.2	18.81
681.4	18.07
681.6	18.30
681.8	18.34
682.0	18.06
682.2	17.45
682.4	17.44
682.6	16.79
682.8	17.03
683.0	16.89
683.2	16.70
683.4	17.02
683.6	16.70
683.8	16.35
684.0	16.61
684.2	16.49
684.4	16.39
684.6	16.67
684.8	16.01
685.0	15.90
685.2	15.75
685.4	15.40
685.6	15.34
685.8	15.67
686.0	15.74
686.2	15.84
686.4	15.72
686.6	14.94
686.8	14.94
687.0	15.10
687.2	15.17
687.4	14.80
687.6	14.60
687.8	14.49
688.0	14.77
688.2	14.57
688.4	13.95
688.6	13.51
688.8	13.35
689.0	13.62
689.2	13.87
689.4	13.97
689.6	13.98
689.8	13.98
690.0	13.65
690.2	13.02
690.4	12.72
690.6	12.58
690.8	13.38
691.0	13.97
691.2	14.21
691.4	13.95
691.6	13.57
691.8	13.18
692.0	12.89
692.2	12.88
692.4	12.74
692.6	12.08
692.8	11.93
693.0	12.12
693.2	12.14
693.4	12.58
693.6	13.01
693.8	12.52
694.0	12.28
694.2	11.72
694.4	11.49
694.6	11.45
694.8	11.68
695.0	11.69
695.2	12.00
695.4	12.20
695.6	12.03
695.8	11.43
696.0	11.09
696.2	10.46
696.4	10.53
696.6	11.02
696.8	10.97
697.0	10.78
697.2	10.71
697.4	10.57
697.6	10.93
697.8	11.06
698.0	10.80
698.2	10.53
698.4	10.27
698.6	10.30
698.8	10.39
699.0	10.33
699.2	10.10
699.4	10.15
699.6	10.20
699.8	10.04
700.0	9.903
700.2	9.770
700.4	9.685
700.6	9.732
700.8	9.703
701.0	9.599
701.2	9.502
701.4	9.707
701.6	9.825
701.8	9.627
702.0	9.305
702.2	8.975
702.4	8.901
702.6	9.249
702.8	9.647
703.0	9.703
703.2	9.759
703.4	9.282
703.6	9.097
703.8	8.775
704.0	8.575
704.2	8.648
704.4	8.920
704.6	8.705
704.8	8.674
705.0	8.488
705.2	8.196
705.4	8.344
705.6	8.548
705.8	8.710
706.0	8.796
706.2	8.629
706.4	8.358
706.6	8.067
706.8	8.132
707.0	8.111
707.2	8.227
707.4	8.114
707.6	8.091
707.8	8.028
708.0	8.073
708.2	8.060
708.4	8.371
708.6	8.331
708.8	8.265
709.0	8.128
709.2	7.859
709.4	8.148
709.6	8.387
709.8	8.185
710.0	7.880
710.2	7.419
710.4	7.233
710.6	7.282
710.8	7.534
711.0	7.660
711.2	7.619
711.4	7.568
711.6	7.482
711.8	7.460
712.0	7.815
712.2	7.694
712.4	7.397
712.6	7.518
712.8	7.084
713.0	6.994
713.2	7.002
713.4	6.850
713.6	6.818
713.8	6.971
714.0	6.705
714.2	6.456
714.4	6.360
714.6	6.269
714.8	6.516
715.0	6.596
715.2	6.314
715.4	6.182
715.6	6.032
715.8	6.106
716.0	6.485
716.2	6.455
716.4	6.236
716.6	6.362
716.8	6.269
717.0	6.576
717.2	6.684
717.4	6.588
717.6	6.640
717.8	6.484
718.0	6.265
718.2	6.072
718.4	5.949
718.6	5.997
718.8	6.025
719.0	5.747
719.2	5.541
719.4	5.345
719.6	5.471
719.8	5.421
720.0	5.703
720.2	5.715
720.4	5.702
720.6	5.657
720.8	5.469
721.0	5.151
721.2	5.132
721.4	5.267
721.6	5.509
721.8	5.706
722.0	5.515
722.2	5.423
722.4	5.210
722.6	5.193
722.8	5.296
723.0	5.274
723.2	5.183
723.4	4.964
723.6	4.842
723.8	4.834
724.0	4.955
724.2	5.298
724.4	5.565
724.6	5.264
724.8	5.002
725.0	4.777
725.2	4.856
725.4	5.069
725.6	5.060
725.8	5.059
726.0	4.962
726.2	4.698
726.4	4.872
726.6	4.780
726.8	4.723
727.0	4.757
727.2	4.535
727.4	4.183
727.6	4.117
727.8	4.106
728.0	4.256
728.2	4.355
728.4	4.361
728.6	4.226
728.8	4.194
729.0	4.310
729.2	4.283
729.4	4.159
729.6	4.013
729.8	3.836
730.0	3.887
730.2	4.129
730.4	4.150
730.6	3.995
730.8	3.888
731.0	3.740
731.2	3.779
731.4	3.753
731.6	3.720
731.8	3.626
732.0	3.692
732.2	3.861
732.4	4.093
732.6	4.223
732.8	4.158
733.0	3.747
733.2	3.576
733.4	3.637
733.6	3.664
733.8	3.711
734.0	3.597
734.2	3.455
734.4	3.583
734.6	3.732
734.8	3.711
735.0	3.541
735.2	3.173
735.4	3.093
735.6	3.127
735.8	3.416
736.0	3.407
736.2	3.377
736.4	3.435
736.6	3.409
736.8	3.428
737.0	3.600
737.2	3.304
737.4	3.029
737.6	3.140
737.8	3.109
738.0	3.160
738.2	3.408
738.4	3.427
738.6	3.178
738.8	3.203
739.0	3.173
739.2	3.029
739.4	3.159
739.6	3.304
739.8	3.444
740.0	3.482
740.2	3.290
740.4	2.986
740.6	2.763
740.8	2.803
741.0	3.033
741.2	2.917
741.4	2.953
741.6	3.028
741.8	2.917
742.0	2.971
742.2	2.855
742.4	2.684
742.6	2.746
742.8	2.821
743.0	2.663
743.2	2.528
743.4	2.329
743.6	2.222
743.8	2.311
744.0	2.456
744.2	2.823
744.4	2.911
744.6	2.940
744.8	2.873
745.0	2.864
745.2	2.571
745.4	2.752
745.6	2.545
745.8	2.445
746.0	2.357
746.2	2.358
746.4	2.269
746.6	2.528
746.8	2.402
747.0	2.465
747.2	2.394
747.4	2.352
747.6	2.347
747.8	2.406
748.0	2.327
748.2	2.413
748.4	2.404
748.6	2.214
748.8	2.150
749.0	2.151
749.2	2.346
749.4	2.496
749.6	2.512
749.8	2.457
750.0	2.317
750.2	2.045
750.4	2.156
750.6	2.372
750.8	2.552
751.0	2.634
751.2	2.592
751.4	2.260
751.6	2.080
751.8	1.970
752.0	1.796
752.2	1.724
752.4	1.849
752.6	1.837
752.8	1.855
753.0	1.923
753.2	1.910
753.4	2.022
753.6	2.207
753.8	2.141
754.0	2.041
754.2	1.955
754.4	1.795
754.6	1.590
754.8	1.743
755.0	1.717
755.2	1.761
755.4	1.944
755.6	2.014
755.8	1.903
756.0	1.875
756.2	1.725
756.4	1.716
756.6	1.857
756.8	1.955
757.0	2.018
757.2	1.987
757.4	1.924
757.6	1.816
757.8	1.772
758.0	1.735
758.2	1.801
758.4	1.967
758.6	1.942
758.8	1.853
759.0	1.748
759.2	1.669
759.4	1.701
759.6	1.838
759.8	1.975
760.0	2.011
760.2	1.918
760.4	1.796
760.6	1.722
760.8	1.600
761.0	1.785
761.2	1.742
761.4	1.795
761.6	1.720
761.8	1.779
762.0	1.734
762.2	1.719
762.4	1.586
762.6	1.531
762.8	1.413
763.0	1.418
763.2	1.487
763.4	1.529
763.6	1.579
763.8	1.632
764.0	1.596
764.2	1.485
764.4	1.368
764.6	1.353
764.8	1.334
765.0	1.386
765.2	1.319
765.4	1.341
765.6	1.288
765.8	1.352
766.0	1.302
766.2	1.270
766.4	1.294
766.6	1.395
766.8	1.415
767.0	1.585
767.2	1.551
767.4	1.460
767.6	1.452
767.8	1.417
768.0	1.389
768.2	1.523
768.4	1.526
768.6	1.597
768.8	1.459
769.0	1.325
769.2	1.214
769.4	1.236
769.6	1.337
769.8	1.502
770.0	1.502
770.2	1.533
770.4	1.496
770.6	1.350
770.8	1.262
771.0	1.027
771.2	1.094
771.4	1.235
771.6	1.427
771.8	1.349
772.0	1.446
772.2	1.164
772.4	1.149
772.6	1.151
772.8	1.288
773.0	1.318
773.2	1.450
773.4	1.298
773.6	1.209
773.8	1.120
774.0	1.169
774.2	1.151
774.4	1.200
774.6	1.215
774.8	1.227
775.0	1.250
775.2	1.350
775.4	1.358
775.6	1.362
775.8	1.262
776.0	1.195
776.2	1.128
776.4	1.149
776.6	1.215
776.8	1.257
777.0	1.220
777.2	1.109
777.4	1.028
777.6	1.062
777.8	0.988
778.0	1.061
778.2	1.121
778.4	1.044
778.6	1.109
778.8	1.039
779.0	1.036
779.2	1.196
779.4	1.339
779.6	1.344
779.8	1.397
780.0	1.130
780.2	1.087
780.4	1.197
780.6	1.251
780.8	1.286
781.0	1.310
781.2	1.185
781.4	1.098
781.6	0.976
781.8	0.831
782.0	0.723
782.2	0.785
782.4	0.912
782.6	1.098
782.8	1.168
783.0	1.268
783.2	1.298
783.4	1.239
783.6	1.085
783.8	1.052
784.0	1.056
784.2	1.170
784.4	1.236
784.6	1.074
784.8	1.067
785.0	1.088
785.2	1.147
785.4	1.196
785.6	1.044
785.8	0.981
786.0	1.033
786.2	1.101
786.4	1.164
786.6	1.080
786.8	0.989
787.0	1.081
787.2	1.161
787.4	1.381
787.6	1.434
787.8	1.340
788.0	1.221
788.2	1.183
788.4	1.267
788.6	1.252
788.8	1.227
789.0	1.377
789.2	1.555
789.4	1.689
789.6	1.651
789.8	1.396
790.0	1.195
790.2	1.171
790.4	1.261
790.6	1.171
790.8	1.089
791.0	1.150
791.2	1.221
791.4	1.409
791.6	1.491
791.8	1.497
792.0	1.538
792.2	1.537
792.4	1.516
792.6	1.480
792.8	1.330
793.0	1.320
793.2	1.246
793.4	1.227
793.6	1.301
793.8	1.331
794.0	1.481
794.2	1.615
794.4	1.538
794.6	1.487
794.8	1.486
795.0	1.563
795.2	1.634
795.4	1.718
795.6	1.532
795.8	1.561
796.0	1.509
796.2	1.512
796.4	1.318
796.6	1.324
796.8	1.314
797.0	1.649
797.2	1.714
797.4	1.798
797.6	1.699
797.8	1.582
798.0	1.660
798.2	1.713
798.4	1.765
798.6	1.796
798.8	1.838
799.0	1.812
799.2	1.926
799.4	1.807
799.6	1.756
799.8	1.586
800.0	1.220

