Sample:	'20211010A(EM)
File name:	G-NI 7.FDS
Run date:	'17:48:19, 06/19/2023
Operator:	Administrator
Comment:	'

Instrument
Model:	F-4700 FL Spectrophotometer
Serial number:	2019-001
ROM Version:	5J24010 00

Instrument parameters
Measurement type:	Wavelength scan
Scan mode:	Emission
Data mode:	Fluorescence
EX WL:	400.0 nm
EM  Start WL:	420.0 nm
EM  End WL:	800.0 nm
Scan speed:	1200 nm/min
Delay:	0.0 s
EX Slit:	10.0 nm
EM Slit:	10.0 nm
PMT Voltage:	500 V
Response:	0.002 s
Corrected spectra:	Off
Shutter control:	On

Processing performed
Savitsky-Golay smoothed
Smoothing order:	3
Number of points:	7
Number of times:	1

Peak integration
Integration method:	Rectangular
Sensitivity:	1
Threshold:	1.000

Peaks
No.	Start(nm)	Apex(nm)	End(nm)	Height(Data)	Valley(nm)	Valley(Data)
1	420.0	534.4	536.0	595.9	536.0	590.1
2	536.0	538.6	539.4	600.7	539.4	594.5
3	539.4	540.6	544.0	603.0	544.0	592.7
4	544.0	544.4	631.2	596.9	631.2	109.8
5	631.2	632.2	634.6	113.6	634.6	99.73
6	634.6	635.4	664.0	102.9	664.0	40.83
7	664.0	664.8	691.6	42.14	691.6	16.46
8	691.6	692.6	703.0	18.14	703.0	11.21
9	703.0	705.4	800.0	12.41	800.0	1.534

Data points
nm	Data
420.0	0.515
420.2	0.469
420.4	0.515
420.6	0.595
420.8	0.613
421.0	0.565
421.2	0.560
421.4	0.585
421.6	0.598
421.8	0.567
422.0	0.482
422.2	0.411
422.4	0.417
422.6	0.476
422.8	0.483
423.0	0.612
423.2	0.693
423.4	0.722
423.6	0.616
423.8	0.580
424.0	0.575
424.2	0.645
424.4	0.716
424.6	0.733
424.8	0.672
425.0	0.731
425.2	0.767
425.4	0.731
425.6	0.736
425.8	0.731
426.0	0.684
426.2	0.673
426.4	0.622
426.6	0.582
426.8	0.643
427.0	0.730
427.2	0.763
427.4	0.704
427.6	0.758
427.8	0.715
428.0	0.756
428.2	0.799
428.4	0.808
428.6	0.697
428.8	0.699
429.0	0.572
429.2	0.522
429.4	0.558
429.6	0.618
429.8	0.662
430.0	0.720
430.2	0.664
430.4	0.675
430.6	0.688
430.8	0.693
431.0	0.710
431.2	0.716
431.4	0.585
431.6	0.697
431.8	0.790
432.0	0.840
432.2	0.943
432.4	0.921
432.6	0.855
432.8	0.826
433.0	0.837
433.2	0.792
433.4	0.740
433.6	0.737
433.8	0.791
434.0	0.741
434.2	0.774
434.4	0.787
434.6	0.780
434.8	0.722
435.0	0.620
435.2	0.517
435.4	0.518
435.6	0.620
435.8	0.774
436.0	0.810
436.2	0.799
436.4	0.717
436.6	0.774
436.8	0.768
437.0	0.701
437.2	0.739
437.4	0.818
437.6	0.812
437.8	0.835
438.0	0.786
438.2	0.660
438.4	0.652
438.6	0.678
438.8	0.735
439.0	0.750
439.2	0.826
439.4	0.782
439.6	0.770
439.8	0.631
440.0	0.662
440.2	0.786
440.4	0.945
440.6	0.951
440.8	0.934
441.0	0.752
441.2	0.610
441.4	0.549
441.6	0.547
441.8	0.574
442.0	0.550
442.2	0.599
442.4	0.652
442.6	0.647
442.8	0.698
443.0	0.671
443.2	0.622
443.4	0.709
443.6	0.784
443.8	0.768
444.0	0.779
444.2	0.729
444.4	0.708
444.6	0.803
444.8	0.888
445.0	0.868
445.2	0.774
445.4	0.784
445.6	0.597
445.8	0.623
446.0	0.654
446.2	0.702
446.4	0.702
446.6	0.807
446.8	0.766
447.0	0.827
447.2	0.773
447.4	0.777
447.6	0.702
447.8	0.754
448.0	0.815
448.2	0.843
448.4	0.697
448.6	0.581
448.8	0.476
449.0	0.504
449.2	0.587
449.4	0.712
449.6	0.735
449.8	0.771
450.0	0.825
450.2	0.821
450.4	0.849
450.6	0.849
450.8	0.809
451.0	0.753
451.2	0.761
451.4	0.765
451.6	0.927
451.8	0.981
452.0	0.971
452.2	1.075
452.4	0.944
452.6	0.756
452.8	0.813
453.0	0.729
453.2	0.778
453.4	0.861
453.6	0.746
453.8	0.630
454.0	0.670
454.2	0.586
454.4	0.741
454.6	0.711
454.8	0.716
455.0	0.646
455.2	0.646
455.4	0.660
455.6	0.857
455.8	1.025
456.0	1.078
456.2	0.990
456.4	0.888
456.6	0.731
456.8	0.730
457.0	0.751
457.2	0.778
457.4	0.801
457.6	0.950
457.8	0.966
458.0	0.933
458.2	0.857
458.4	0.679
458.6	0.552
458.8	0.602
459.0	0.637
459.2	0.704
459.4	0.900
459.6	0.855
459.8	0.920
460.0	1.007
460.2	0.916
460.4	0.865
460.6	0.827
460.8	0.671
461.0	0.741
461.2	0.886
461.4	0.820
461.6	0.836
461.8	0.883
462.0	0.897
462.2	0.899
462.4	1.010
462.6	1.026
462.8	1.102
463.0	1.158
463.2	1.153
463.4	0.881
463.6	0.789
463.8	0.854
464.0	0.957
464.2	1.022
464.4	1.088
464.6	1.010
464.8	0.949
465.0	0.975
465.2	0.956
465.4	0.992
465.6	0.903
465.8	1.008
466.0	1.085
466.2	1.236
466.4	1.406
466.6	1.487
466.8	1.327
467.0	1.367
467.2	1.302
467.4	1.396
467.6	1.483
467.8	1.377
468.0	1.394
468.2	1.394
468.4	1.259
468.6	1.298
468.8	1.404
469.0	1.466
469.2	1.599
469.4	1.605
469.6	1.639
469.8	1.700
470.0	1.775
470.2	1.915
470.4	1.979
470.6	1.930
470.8	2.147
471.0	2.096
471.2	1.954
471.4	2.107
471.6	2.073
471.8	1.951
472.0	2.213
472.2	2.130
472.4	2.256
472.6	2.605
472.8	2.598
473.0	2.654
473.2	2.727
473.4	2.626
473.6	2.647
473.8	2.968
474.0	2.982
474.2	3.279
474.4	3.288
474.6	3.414
474.8	3.403
475.0	3.591
475.2	3.531
475.4	3.535
475.6	3.384
475.8	3.720
476.0	3.896
476.2	4.407
476.4	4.619
476.6	4.443
476.8	4.214
477.0	4.273
477.2	4.373
477.4	5.137
477.6	5.563
477.8	5.817
478.0	5.920
478.2	5.890
478.4	5.989
478.6	6.262
478.8	6.398
479.0	6.756
479.2	6.952
479.4	7.303
479.6	7.778
479.8	8.094
480.0	8.310
480.2	8.695
480.4	8.685
480.6	8.727
480.8	9.067
481.0	9.240
481.2	9.428
481.4	9.829
481.6	10.28
481.8	10.68
482.0	11.31
482.2	12.25
482.4	12.42
482.6	12.67
482.8	13.05
483.0	13.26
483.2	13.61
483.4	14.33
483.6	14.45
483.8	14.98
484.0	16.01
484.2	16.72
484.4	17.74
484.6	18.10
484.8	18.28
485.0	18.49
485.2	18.91
485.4	19.16
485.6	20.43
485.8	21.42
486.0	22.54
486.2	23.28
486.4	23.66
486.6	24.29
486.8	24.96
487.0	25.32
487.2	26.11
487.4	26.31
487.6	27.11
487.8	28.79
488.0	29.61
488.2	30.53
488.4	31.88
488.6	32.41
488.8	32.61
489.0	33.50
489.2	34.08
489.4	35.71
489.6	37.49
489.8	39.23
490.0	39.69
490.2	40.14
490.4	41.12
490.6	42.52
490.8	44.26
491.0	47.01
491.2	48.09
491.4	48.18
491.6	48.99
491.8	49.78
492.0	51.28
492.2	53.74
492.4	55.66
492.6	57.35
492.8	59.34
493.0	60.64
493.2	61.84
493.4	62.93
493.6	64.15
493.8	65.60
494.0	67.77
494.2	69.60
494.4	72.16
494.6	73.85
494.8	75.17
495.0	77.04
495.2	79.22
495.4	81.15
495.6	83.55
495.8	85.83
496.0	87.41
496.2	89.93
496.4	92.26
496.6	93.62
496.8	95.88
497.0	98.57
497.2	100.2
497.4	101.8
497.6	104.2
497.8	105.8
498.0	107.9
498.2	110.2
498.4	113.4
498.6	115.8
498.8	120.2
499.0	123.7
499.2	125.6
499.4	126.7
499.6	128.6
499.8	130.6
500.0	133.7
500.2	137.0
500.4	139.2
500.6	142.6
500.8	145.7
501.0	150.6
501.2	153.4
501.4	156.5
501.6	158.9
501.8	162.2
502.0	163.4
502.2	166.2
502.4	168.7
502.6	173.0
502.8	179.0
503.0	182.6
503.2	184.0
503.4	185.1
503.6	188.7
503.8	192.6
504.0	198.3
504.2	202.4
504.4	206.1
504.6	209.5
504.8	213.0
505.0	215.8
505.2	218.2
505.4	222.4
505.6	227.1
505.8	231.9
506.0	234.7
506.2	238.9
506.4	239.3
506.6	242.1
506.8	244.1
507.0	247.7
507.2	251.3
507.4	257.5
507.6	259.9
507.8	264.8
508.0	266.8
508.2	268.1
508.4	270.8
508.6	276.8
508.8	280.5
509.0	286.1
509.2	289.3
509.4	293.6
509.6	297.3
509.8	301.9
510.0	304.2
510.2	306.6
510.4	309.6
510.6	316.9
510.8	320.6
511.0	323.3
511.2	326.5
511.4	330.6
511.6	333.6
511.8	340.0
512.0	343.7
512.2	347.2
512.4	348.7
512.6	352.4
512.8	353.7
513.0	357.4
513.2	361.8
513.4	366.5
513.6	368.9
513.8	372.3
514.0	376.2
514.2	379.0
514.4	383.4
514.6	388.4
514.8	392.2
515.0	394.4
515.2	399.2
515.4	402.3
515.6	406.0
515.8	409.1
516.0	409.7
516.2	412.4
516.4	415.9
516.6	422.0
516.8	425.5
517.0	429.4
517.2	430.5
517.4	434.2
517.6	436.7
517.8	441.6
518.0	443.6
518.2	446.2
518.4	447.6
518.6	451.1
518.8	452.1
519.0	456.1
519.2	459.7
519.4	463.3
519.6	467.3
519.8	471.2
520.0	470.7
520.2	473.6
520.4	475.6
520.6	479.3
520.8	482.9
521.0	485.2
521.2	488.2
521.4	491.5
521.6	493.6
521.8	496.5
522.0	500.3
522.2	500.8
522.4	504.3
522.6	506.8
522.8	508.0
523.0	509.9
523.2	514.8
523.4	516.4
523.6	517.6
523.8	521.5
524.0	521.2
524.2	521.7
524.4	526.1
524.6	529.7
524.8	528.7
525.0	533.0
525.2	534.2
525.4	535.5
525.6	538.2
525.8	542.2
526.0	543.1
526.2	546.1
526.4	548.3
526.6	550.8
526.8	551.1
527.0	554.3
527.2	556.3
527.4	555.6
527.6	554.7
527.8	557.6
528.0	557.3
528.2	560.2
528.4	562.7
528.6	564.6
528.8	566.4
529.0	569.5
529.2	571.0
529.4	572.1
529.6	573.4
529.8	573.8
530.0	572.3
530.2	573.1
530.4	574.9
530.6	574.7
530.8	577.2
531.0	577.4
531.2	579.9
531.4	582.5
531.6	584.1
531.8	585.3
532.0	585.9
532.2	584.9
532.4	588.1
532.6	588.6
532.8	589.7
533.0	589.8
533.2	590.1
533.4	587.8
533.6	589.3
533.8	591.0
534.0	593.8
534.2	593.7
534.4	595.9
534.6	593.8
534.8	594.1
535.0	594.7
535.2	595.2
535.4	594.2
535.6	593.1
535.8	591.1
536.0	590.1
536.2	590.6
536.4	595.0
536.6	598.4
536.8	600.3
537.0	600.6
537.2	599.2
537.4	597.5
537.6	597.5
537.8	598.9
538.0	600.6
538.2	599.3
538.4	600.7
538.6	600.7
538.8	598.1
539.0	597.4
539.2	595.7
539.4	594.5
539.6	596.0
539.8	598.0
540.0	599.9
540.2	599.8
540.4	600.9
540.6	603.0
540.8	602.0
541.0	600.9
541.2	602.4
541.4	598.1
541.6	595.8
541.8	595.4
542.0	594.4
542.2	593.9
542.4	595.6
542.6	594.7
542.8	593.9
543.0	595.0
543.2	595.6
543.4	595.6
543.6	593.7
543.8	593.3
544.0	592.7
544.2	595.2
544.4	596.9
544.6	595.9
544.8	593.0
545.0	590.1
545.2	587.5
545.4	587.2
545.6	587.3
545.8	588.5
546.0	588.0
546.2	588.6
546.4	587.2
546.6	587.2
546.8	584.7
547.0	584.7
547.2	583.6
547.4	583.6
547.6	581.5
547.8	579.4
548.0	577.0
548.2	576.9
548.4	577.3
548.6	580.4
548.8	579.9
549.0	577.4
549.2	576.0
549.4	574.5
549.6	573.1
549.8	574.9
550.0	575.9
550.2	574.1
550.4	572.4
550.6	570.5
550.8	570.0
551.0	568.7
551.2	566.6
551.4	561.4
551.6	560.2
551.8	559.0
552.0	560.8
552.2	561.0
552.4	559.0
552.6	556.3
552.8	559.0
553.0	557.4
553.2	557.3
553.4	554.2
553.6	552.0
553.8	550.2
554.0	551.9
554.2	550.9
554.4	550.6
554.6	549.2
554.8	547.8
555.0	548.0
555.2	545.7
555.4	543.3
555.6	540.3
555.8	538.3
556.0	536.6
556.2	538.0
556.4	538.2
556.6	536.9
556.8	535.2
557.0	533.2
557.2	532.7
557.4	532.4
557.6	532.4
557.8	529.7
558.0	529.0
558.2	527.7
558.4	527.1
558.6	524.6
558.8	520.4
559.0	519.5
559.2	519.8
559.4	520.2
559.6	518.9
559.8	516.6
560.0	513.7
560.2	513.1
560.4	513.1
560.6	513.6
560.8	513.3
561.0	513.7
561.2	509.5
561.4	504.7
561.6	504.1
561.8	503.5
562.0	502.8
562.2	503.5
562.4	501.7
562.6	500.5
562.8	501.2
563.0	497.8
563.2	494.8
563.4	493.7
563.6	494.8
563.8	492.2
564.0	489.6
564.2	484.9
564.4	484.2
564.6	482.1
564.8	484.3
565.0	482.7
565.2	482.1
565.4	480.9
565.6	481.4
565.8	479.1
566.0	477.4
566.2	474.2
566.4	473.5
566.6	470.3
566.8	469.2
567.0	471.2
567.2	468.6
567.4	466.6
567.6	467.1
567.8	465.7
568.0	464.2
568.2	465.4
568.4	462.6
568.6	459.3
568.8	456.9
569.0	455.2
569.2	452.6
569.4	451.3
569.6	450.7
569.8	451.1
570.0	449.3
570.2	447.8
570.4	446.3
570.6	442.7
570.8	443.0
571.0	442.7
571.2	439.9
571.4	438.7
571.6	436.7
571.8	434.9
572.0	438.5
572.2	437.3
572.4	435.2
572.6	430.6
572.8	426.5
573.0	424.8
573.2	425.1
573.4	424.4
573.6	422.0
573.8	417.9
574.0	417.4
574.2	418.1
574.4	415.5
574.6	414.9
574.8	412.5
575.0	410.3
575.2	409.1
575.4	409.2
575.6	407.3
575.8	406.7
576.0	406.6
576.2	405.4
576.4	405.0
576.6	403.2
576.8	401.0
577.0	399.4
577.2	397.4
577.4	395.7
577.6	393.3
577.8	390.5
578.0	388.4
578.2	389.1
578.4	390.3
578.6	389.5
578.8	386.3
579.0	383.6
579.2	380.7
579.4	379.2
579.6	378.7
579.8	373.6
580.0	372.1
580.2	371.0
580.4	371.6
580.6	371.1
580.8	372.4
581.0	371.9
581.2	372.0
581.4	370.8
581.6	369.3
581.8	364.5
582.0	363.0
582.2	363.3
582.4	363.5
582.6	361.7
582.8	358.1
583.0	354.2
583.2	353.3
583.4	354.1
583.6	354.3
583.8	352.4
584.0	351.4
584.2	350.6
584.4	350.3
584.6	349.1
584.8	347.6
585.0	344.0
585.2	342.4
585.4	341.0
585.6	340.7
585.8	337.4
586.0	335.0
586.2	331.3
586.4	330.2
586.6	328.7
586.8	330.2
587.0	328.5
587.2	326.7
587.4	324.9
587.6	324.5
587.8	321.3
588.0	321.8
588.2	321.8
588.4	319.7
588.6	319.1
588.8	317.6
589.0	313.7
589.2	312.1
589.4	309.8
589.6	307.2
589.8	306.1
590.0	305.2
590.2	304.5
590.4	307.4
590.6	306.8
590.8	306.8
591.0	303.6
591.2	300.7
591.4	299.1
591.6	299.0
591.8	297.1
592.0	296.7
592.2	296.6
592.4	294.0
592.6	293.4
592.8	292.3
593.0	289.7
593.2	288.6
593.4	287.9
593.6	283.4
593.8	282.0
594.0	281.7
594.2	280.4
594.4	280.1
594.6	278.9
594.8	277.5
595.0	275.9
595.2	276.7
595.4	274.9
595.6	271.7
595.8	269.2
596.0	268.3
596.2	268.1
596.4	269.8
596.6	270.2
596.8	269.8
597.0	269.2
597.2	266.9
597.4	265.7
597.6	263.7
597.8	262.5
598.0	257.8
598.2	256.4
598.4	255.4
598.6	256.0
598.8	256.4
599.0	256.0
599.2	252.2
599.4	250.9
599.6	249.9
599.8	250.7
600.0	248.4
600.2	246.9
600.4	245.5
600.6	243.8
600.8	243.0
601.0	246.3
601.2	244.6
601.4	242.4
601.6	239.9
601.8	237.5
602.0	236.0
602.2	238.4
602.4	238.9
602.6	237.2
602.8	235.2
603.0	232.4
603.2	231.0
603.4	229.7
603.6	228.0
603.8	225.4
604.0	223.7
604.2	222.4
604.4	223.8
604.6	226.4
604.8	225.2
605.0	223.2
605.2	221.0
605.4	218.7
605.6	217.6
605.8	218.1
606.0	216.3
606.2	214.6
606.4	214.1
606.6	212.8
606.8	212.3
607.0	210.7
607.2	209.1
607.4	206.4
607.6	206.6
607.8	206.1
608.0	206.4
608.2	206.7
608.4	206.2
608.6	205.4
608.8	204.5
609.0	202.3
609.2	201.5
609.4	200.2
609.6	198.9
609.8	198.6
610.0	196.7
610.2	195.5
610.4	195.9
610.6	194.9
610.8	193.7
611.0	192.7
611.2	190.2
611.4	188.3
611.6	188.7
611.8	188.0
612.0	187.5
612.2	187.5
612.4	185.5
612.6	183.8
612.8	184.0
613.0	182.1
613.2	182.1
613.4	182.1
613.6	180.7
613.8	179.4
614.0	177.2
614.2	175.0
614.4	174.8
614.6	175.1
614.8	173.5
615.0	172.4
615.2	171.0
615.4	169.7
615.6	169.5
615.8	170.4
616.0	169.9
616.2	168.5
616.4	168.3
616.6	166.4
616.8	164.4
617.0	163.9
617.2	163.3
617.4	162.2
617.6	161.9
617.8	161.8
618.0	160.7
618.2	160.3
618.4	159.9
618.6	159.4
618.8	157.4
619.0	156.8
619.2	154.7
619.4	152.6
619.6	152.0
619.8	153.8
620.0	154.1
620.2	155.6
620.4	155.2
620.6	153.3
620.8	151.5
621.0	151.0
621.2	148.4
621.4	146.8
621.6	146.8
621.8	144.6
622.0	143.5
622.2	144.5
622.4	144.6
622.6	145.2
622.8	146.1
623.0	144.5
623.2	142.5
623.4	142.3
623.6	140.5
623.8	139.2
624.0	137.7
624.2	137.6
624.4	136.0
624.6	136.7
624.8	136.2
625.0	135.3
625.2	133.2
625.4	132.0
625.6	130.5
625.8	129.9
626.0	129.8
626.2	129.2
626.4	129.2
626.6	128.9
626.8	128.6
627.0	127.2
627.2	126.3
627.4	124.0
627.6	124.6
627.8	124.1
628.0	123.0
628.2	122.2
628.4	122.4
628.6	121.7
628.8	122.2
629.0	120.4
629.2	117.9
629.4	116.8
629.6	116.7
629.8	117.0
630.0	117.3
630.2	116.8
630.4	116.0
630.6	114.1
630.8	112.5
631.0	111.6
631.2	109.8
631.4	110.1
631.6	110.4
631.8	110.8
632.0	112.3
632.2	113.6
632.4	112.5
632.6	111.3
632.8	109.6
633.0	109.1
633.2	109.3
633.4	109.6
633.6	108.6
633.8	106.5
634.0	104.3
634.2	102.3
634.4	100.6
634.6	99.73
634.8	100.1
635.0	100.8
635.2	101.9
635.4	102.9
635.6	101.6
635.8	101.2
636.0	99.48
636.2	97.84
636.4	96.98
636.6	96.88
636.8	95.53
637.0	96.15
637.2	95.56
637.4	95.86
637.6	94.50
637.8	93.89
638.0	92.61
638.2	92.66
638.4	92.68
638.6	92.06
638.8	90.22
639.0	89.74
639.2	87.49
639.4	86.94
639.6	86.74
639.8	86.72
640.0	87.45
640.2	87.94
640.4	86.94
640.6	85.90
640.8	84.63
641.0	84.72
641.2	84.55
641.4	83.87
641.6	83.95
641.8	83.65
642.0	82.50
642.2	82.27
642.4	81.72
642.6	81.34
642.8	81.02
643.0	80.52
643.2	79.53
643.4	78.19
643.6	78.04
643.8	79.08
644.0	79.96
644.2	79.52
644.4	78.35
644.6	76.92
644.8	76.14
645.0	75.44
645.2	75.48
645.4	75.24
645.6	74.66
645.8	74.23
646.0	73.56
646.2	72.14
646.4	72.11
646.6	72.98
646.8	73.32
647.0	72.09
647.2	71.02
647.4	68.74
647.6	67.78
647.8	67.60
648.0	67.65
648.2	68.07
648.4	68.26
648.6	67.51
648.8	67.71
649.0	66.69
649.2	66.93
649.4	67.53
649.6	66.65
649.8	65.69
650.0	64.94
650.2	64.27
650.4	64.60
650.6	64.01
650.8	63.68
651.0	63.43
651.2	63.31
651.4	63.60
651.6	62.99
651.8	61.57
652.0	60.25
652.2	60.53
652.4	60.25
652.6	60.43
652.8	61.09
653.0	60.77
653.2	59.93
653.4	59.34
653.6	58.52
653.8	57.86
654.0	57.61
654.2	57.30
654.4	57.04
654.6	56.92
654.8	57.31
655.0	56.98
655.2	56.35
655.4	55.92
655.6	55.06
655.8	55.20
656.0	54.74
656.2	53.60
656.4	52.23
656.6	51.61
656.8	52.22
657.0	53.22
657.2	53.53
657.4	52.82
657.6	51.57
657.8	50.43
658.0	49.98
658.2	49.10
658.4	49.41
658.6	49.40
658.8	49.70
659.0	49.48
659.2	49.19
659.4	48.30
659.6	48.59
659.8	48.04
660.0	47.68
660.2	47.41
660.4	47.60
660.6	46.90
660.8	46.61
661.0	46.36
661.2	45.59
661.4	45.66
661.6	45.89
661.8	45.46
662.0	45.65
662.2	45.96
662.4	44.74
662.6	44.35
662.8	43.09
663.0	42.77
663.2	42.51
663.4	42.65
663.6	42.09
663.8	41.83
664.0	40.83
664.2	41.47
664.4	41.15
664.6	42.10
664.8	42.14
665.0	42.04
665.2	41.02
665.4	40.78
665.6	40.05
665.8	39.65
666.0	38.74
666.2	38.40
666.4	37.66
666.6	37.87
666.8	38.61
667.0	38.34
667.2	38.38
667.4	38.11
667.6	37.59
667.8	37.28
668.0	37.50
668.2	37.06
668.4	37.67
668.6	37.45
668.8	37.14
669.0	36.13
669.2	34.52
669.4	34.15
669.6	35.34
669.8	35.40
670.0	35.95
670.2	35.06
670.4	33.63
670.6	33.43
670.8	33.54
671.0	33.26
671.2	33.62
671.4	33.06
671.6	33.28
671.8	32.42
672.0	31.78
672.2	31.62
672.4	31.58
672.6	31.25
672.8	31.94
673.0	31.02
673.2	30.53
673.4	30.42
673.6	30.25
673.8	30.60
674.0	31.10
674.2	31.18
674.4	30.63
674.6	29.85
674.8	29.79
675.0	29.82
675.2	29.93
675.4	29.94
675.6	29.31
675.8	28.95
676.0	28.80
676.2	28.34
676.4	28.75
676.6	28.50
676.8	27.83
677.0	27.66
677.2	27.00
677.4	26.37
677.6	26.81
677.8	26.79
678.0	26.54
678.2	26.63
678.4	26.11
678.6	25.87
678.8	26.39
679.0	26.66
679.2	26.32
679.4	25.71
679.6	24.56
679.8	24.08
680.0	24.15
680.2	24.39
680.4	24.29
680.6	24.42
680.8	24.49
681.0	24.09
681.2	24.10
681.4	24.06
681.6	24.00
681.8	23.86
682.0	23.69
682.2	23.32
682.4	23.04
682.6	22.98
682.8	22.88
683.0	23.04
683.2	23.37
683.4	23.10
683.6	22.67
683.8	22.04
684.0	21.39
684.2	21.22
684.4	21.28
684.6	20.56
684.8	20.77
685.0	21.00
685.2	21.12
685.4	21.23
685.6	21.43
685.8	20.91
686.0	20.46
686.2	20.40
686.4	19.78
686.6	19.59
686.8	19.68
687.0	20.11
687.2	20.13
687.4	20.50
687.6	20.15
687.8	19.74
688.0	19.41
688.2	19.57
688.4	19.40
688.6	19.27
688.8	19.11
689.0	18.80
689.2	18.59
689.4	18.65
689.6	18.74
689.8	18.71
690.0	19.06
690.2	18.58
690.4	18.18
690.6	17.51
690.8	17.16
691.0	17.10
691.2	17.28
691.4	16.75
691.6	16.46
691.8	16.54
692.0	16.79
692.2	17.28
692.4	17.95
692.6	18.14
692.8	17.82
693.0	17.46
693.2	16.46
693.4	15.87
693.6	15.47
693.8	15.46
694.0	15.72
694.2	15.85
694.4	15.75
694.6	15.94
694.8	15.85
695.0	15.84
695.2	15.68
695.4	15.18
695.6	15.01
695.8	15.14
696.0	15.31
696.2	15.63
696.4	15.49
696.6	15.08
696.8	14.78
697.0	14.85
697.2	14.50
697.4	14.42
697.6	14.22
697.8	14.57
698.0	14.28
698.2	14.45
698.4	14.20
698.6	13.90
698.8	13.60
699.0	13.91
699.2	13.70
699.4	13.65
699.6	13.60
699.8	13.99
700.0	13.73
700.2	13.71
700.4	13.54
700.6	13.18
700.8	12.84
701.0	13.35
701.2	12.99
701.4	13.11
701.6	13.02
701.8	12.64
702.0	12.80
702.2	13.27
702.4	13.58
702.6	13.01
702.8	12.08
703.0	11.21
703.2	11.35
703.4	11.57
703.6	12.15
703.8	12.04
704.0	11.89
704.2	11.94
704.4	11.67
704.6	11.66
704.8	11.95
705.0	11.93
705.2	12.18
705.4	12.41
705.6	11.83
705.8	11.67
706.0	11.51
706.2	11.15
706.4	11.40
706.6	11.63
706.8	11.76
707.0	11.85
707.2	11.56
707.4	10.91
707.6	10.66
707.8	11.00
708.0	11.10
708.2	11.28
708.4	10.68
708.6	10.33
708.8	10.24
709.0	10.70
709.2	10.64
709.4	10.76
709.6	10.43
709.8	10.81
710.0	10.47
710.2	10.63
710.4	10.55
710.6	10.61
710.8	10.28
711.0	10.24
711.2	9.753
711.4	9.714
711.6	9.396
711.8	9.560
712.0	9.569
712.2	9.769
712.4	10.04
712.6	10.09
712.8	9.637
713.0	9.649
713.2	9.255
713.4	9.164
713.6	9.084
713.8	9.092
714.0	9.111
714.2	9.465
714.4	9.220
714.6	9.297
714.8	9.058
715.0	9.087
715.2	8.902
715.4	9.129
715.6	8.804
715.8	8.563
716.0	8.312
716.2	8.389
716.4	8.377
716.6	8.803
716.8	8.801
717.0	8.866
717.2	8.724
717.4	8.572
717.6	8.419
717.8	8.358
718.0	7.861
718.2	7.587
718.4	7.532
718.6	7.675
718.8	7.820
719.0	8.023
719.2	7.935
719.4	7.684
719.6	7.629
719.8	7.533
720.0	7.444
720.2	7.179
720.4	7.335
720.6	7.258
720.8	7.279
721.0	7.098
721.2	7.050
721.4	6.795
721.6	6.938
721.8	6.910
722.0	6.747
722.2	6.651
722.4	6.728
722.6	6.739
722.8	6.907
723.0	6.823
723.2	6.698
723.4	6.545
723.6	6.798
723.8	6.729
724.0	7.038
724.2	6.936
724.4	6.866
724.6	6.603
724.8	6.573
725.0	6.352
725.2	6.530
725.4	6.544
725.6	6.321
725.8	6.310
726.0	6.216
726.2	6.190
726.4	6.254
726.6	6.290
726.8	6.122
727.0	6.380
727.2	6.305
727.4	6.337
727.6	6.103
727.8	5.821
728.0	5.583
728.2	5.413
728.4	5.355
728.6	5.683
728.8	5.829
729.0	5.895
729.2	5.904
729.4	5.709
729.6	5.623
729.8	5.684
730.0	5.675
730.2	5.324
730.4	5.456
730.6	5.514
730.8	5.430
731.0	5.492
731.2	5.467
731.4	5.433
731.6	5.620
731.8	5.591
732.0	5.350
732.2	5.157
732.4	5.144
732.6	5.085
732.8	5.039
733.0	4.772
733.2	4.592
733.4	4.664
733.6	4.788
733.8	4.621
734.0	4.605
734.2	4.394
734.4	4.477
734.6	4.730
734.8	4.693
735.0	4.778
735.2	4.819
735.4	4.988
735.6	5.059
735.8	4.845
736.0	4.290
736.2	4.059
736.4	4.099
736.6	4.432
736.8	4.675
737.0	4.679
737.2	4.357
737.4	4.179
737.6	4.130
737.8	4.312
738.0	4.481
738.2	4.646
738.4	4.679
738.6	4.687
738.8	4.588
739.0	4.310
739.2	4.000
739.4	3.889
739.6	3.774
739.8	3.785
740.0	3.879
740.2	3.695
740.4	3.545
740.6	3.608
740.8	3.699
741.0	3.910
741.2	4.008
741.4	3.750
741.6	3.523
741.8	3.386
742.0	3.378
742.2	3.610
742.4	3.670
742.6	3.712
742.8	3.796
743.0	3.661
743.2	3.352
743.4	3.086
743.6	2.982
743.8	3.014
744.0	3.213
744.2	3.350
744.4	3.249
744.6	3.159
744.8	3.266
745.0	3.225
745.2	3.425
745.4	3.399
745.6	3.337
745.8	3.292
746.0	3.184
746.2	3.123
746.4	3.184
746.6	3.130
746.8	3.255
747.0	3.259
747.2	3.180
747.4	3.158
747.6	3.082
747.8	2.964
748.0	2.949
748.2	3.123
748.4	3.075
748.6	3.133
748.8	3.096
749.0	2.838
749.2	2.734
749.4	2.726
749.6	2.723
749.8	2.961
750.0	3.293
750.2	3.369
750.4	3.461
750.6	3.343
750.8	3.088
751.0	2.863
751.2	2.864
751.4	2.856
751.6	2.783
751.8	2.989
752.0	2.883
752.2	2.886
752.4	3.002
752.6	3.041
752.8	2.981
753.0	3.005
753.2	2.848
753.4	2.716
753.6	2.565
753.8	2.406
754.0	2.389
754.2	2.396
754.4	2.538
754.6	2.639
754.8	2.645
755.0	2.587
755.2	2.476
755.4	2.525
755.6	2.626
755.8	2.580
756.0	2.517
756.2	2.354
756.4	2.203
756.6	2.271
756.8	2.396
757.0	2.367
757.2	2.518
757.4	2.352
757.6	2.367
757.8	2.532
758.0	2.619
758.2	2.545
758.4	2.550
758.6	2.381
758.8	2.288
759.0	2.175
759.2	2.182
759.4	2.215
759.6	2.351
759.8	2.557
760.0	2.592
760.2	2.326
760.4	2.203
760.6	2.165
760.8	2.129
761.0	2.184
761.2	2.178
761.4	2.105
761.6	2.116
761.8	2.271
762.0	2.215
762.2	2.229
762.4	2.164
762.6	2.159
762.8	2.098
763.0	2.184
763.2	2.040
763.4	2.000
763.6	1.953
763.8	1.838
764.0	1.788
764.2	1.949
764.4	1.956
764.6	2.054
764.8	2.056
765.0	2.006
765.2	1.968
765.4	2.051
765.6	1.948
765.8	1.897
766.0	1.859
766.2	1.802
766.4	1.775
766.6	1.855
766.8	1.751
767.0	1.697
767.2	1.670
767.4	1.653
767.6	1.770
767.8	1.905
768.0	2.029
768.2	2.189
768.4	2.110
768.6	2.153
768.8	2.098
769.0	1.890
769.2	1.771
769.4	1.819
769.6	1.771
769.8	1.870
770.0	1.848
770.2	1.786
770.4	1.653
770.6	1.657
770.8	1.797
771.0	1.920
771.2	1.802
771.4	1.792
771.6	1.611
771.8	1.528
772.0	1.602
772.2	1.602
772.4	1.512
772.6	1.667
772.8	1.755
773.0	1.661
773.2	1.426
773.4	1.251
773.6	1.268
773.8	1.394
774.0	1.702
774.2	1.778
774.4	1.644
774.6	1.560
774.8	1.428
775.0	1.334
775.2	1.286
775.4	1.449
775.6	1.410
775.8	1.543
776.0	1.565
776.2	1.618
776.4	1.406
776.6	1.305
776.8	1.138
777.0	1.241
777.2	1.296
777.4	1.410
777.6	1.404
777.8	1.552
778.0	1.550
778.2	1.495
778.4	1.457
778.6	1.494
778.8	1.487
779.0	1.623
779.2	1.447
779.4	1.316
779.6	1.301
779.8	1.432
780.0	1.574
780.2	1.706
780.4	1.611
780.6	1.530
780.8	1.383
781.0	1.368
781.2	1.442
781.4	1.456
781.6	1.405
781.8	1.373
782.0	1.258
782.2	1.179
782.4	1.254
782.6	1.317
782.8	1.533
783.0	1.574
783.2	1.462
783.4	1.316
783.6	1.369
783.8	1.323
784.0	1.466
784.2	1.501
784.4	1.317
784.6	1.314
784.8	1.366
785.0	1.213
785.2	1.226
785.4	1.248
785.6	1.234
785.8	1.303
786.0	1.379
786.2	1.463
786.4	1.451
786.6	1.438
786.8	1.484
787.0	1.390
787.2	1.415
787.4	1.470
787.6	1.480
787.8	1.631
788.0	1.629
788.2	1.476
788.4	1.410
788.6	1.391
788.8	1.402
789.0	1.528
789.2	1.567
789.4	1.532
789.6	1.508
789.8	1.530
790.0	1.423
790.2	1.418
790.4	1.428
790.6	1.580
790.8	1.618
791.0	1.590
791.2	1.375
791.4	1.331
791.6	1.234
791.8	1.401
792.0	1.467
792.2	1.469
792.4	1.559
792.6	1.671
792.8	1.625
793.0	1.615
793.2	1.688
793.4	1.661
793.6	1.817
793.8	1.886
794.0	1.863
794.2	1.758
794.4	1.811
794.6	1.798
794.8	1.646
795.0	1.603
795.2	1.604
795.4	1.639
795.6	1.821
795.8	1.886
796.0	1.855
796.2	1.871
796.4	1.690
796.6	1.710
796.8	1.779
797.0	1.860
797.2	1.922
797.4	1.925
797.6	1.775
797.8	1.763
798.0	1.727
798.2	1.912
798.4	2.046
798.6	2.073
798.8	2.168
799.0	2.101
799.2	2.013
799.4	1.981
799.6	1.938
799.8	1.808
800.0	1.534

