Sample:	'20211010A(EM)
File name:	G-NI 9.FDS
Run date:	'17:55:12, 06/19/2023
Operator:	Administrator
Comment:	'

Instrument
Model:	F-4700 FL Spectrophotometer
Serial number:	2019-001
ROM Version:	5J24010 00

Instrument parameters
Measurement type:	Wavelength scan
Scan mode:	Emission
Data mode:	Fluorescence
EX WL:	400.0 nm
EM  Start WL:	420.0 nm
EM  End WL:	800.0 nm
Scan speed:	1200 nm/min
Delay:	0.0 s
EX Slit:	10.0 nm
EM Slit:	10.0 nm
PMT Voltage:	500 V
Response:	0.002 s
Corrected spectra:	Off
Shutter control:	On

Processing performed
Savitsky-Golay smoothed
Smoothing order:	3
Number of points:	7
Number of times:	1

Peak integration
Integration method:	Rectangular
Sensitivity:	1
Threshold:	1.000

Peaks
No.	Start(nm)	Apex(nm)	End(nm)	Height(Data)	Valley(nm)	Valley(Data)
1	420.0	537.0	538.0	906.1	538.0	896.3
2	538.0	539.6	540.4	906.3	540.4	894.0
3	540.4	541.2	542.4	904.8	542.4	893.9
4	542.4	543.6	672.4	904.8	672.4	46.86
5	672.4	673.4	677.2	49.24	677.2	40.72
6	677.2	678.2	691.2	42.20	691.2	25.87
7	691.2	692.2	698.4	27.05	698.4	20.13
8	698.4	699.4	707.0	22.05	707.0	15.68
9	707.0	708.0	800.0	17.05	800.0	1.698

Data points
nm	Data
420.0	0.558
420.2	0.549
420.4	0.629
420.6	0.731
420.8	0.677
421.0	0.733
421.2	0.722
421.4	0.725
421.6	0.742
421.8	0.864
422.0	0.891
422.2	0.944
422.4	1.000
422.6	0.907
422.8	0.836
423.0	0.698
423.2	0.618
423.4	0.539
423.6	0.556
423.8	0.610
424.0	0.692
424.2	0.769
424.4	0.902
424.6	0.919
424.8	0.946
425.0	0.870
425.2	0.783
425.4	0.867
425.6	0.911
425.8	0.940
426.0	0.944
426.2	0.816
426.4	0.783
426.6	0.784
426.8	0.742
427.0	0.741
427.2	0.832
427.4	0.921
427.6	1.077
427.8	1.034
428.0	0.992
428.2	0.845
428.4	0.759
428.6	0.779
428.8	0.866
429.0	0.895
429.2	0.943
429.4	0.919
429.6	0.765
429.8	0.757
430.0	0.709
430.2	0.707
430.4	0.696
430.6	0.669
430.8	0.660
431.0	0.764
431.2	0.790
431.4	0.901
431.6	0.958
431.8	0.939
432.0	0.876
432.2	0.908
432.4	0.762
432.6	0.797
432.8	0.733
433.0	0.731
433.2	0.598
433.4	0.642
433.6	0.545
433.8	0.630
434.0	0.610
434.2	0.803
434.4	0.934
434.6	1.026
434.8	1.039
435.0	1.141
435.2	1.090
435.4	1.116
435.6	0.986
435.8	0.791
436.0	0.698
436.2	0.839
436.4	0.947
436.6	0.969
436.8	0.998
437.0	0.921
437.2	0.825
437.4	0.712
437.6	0.671
437.8	0.698
438.0	0.772
438.2	0.769
438.4	0.815
438.6	0.855
438.8	0.835
439.0	0.962
439.2	0.904
439.4	0.838
439.6	0.860
439.8	0.971
440.0	0.882
440.2	0.892
440.4	1.067
440.6	1.130
440.8	1.164
441.0	1.032
441.2	0.831
441.4	0.676
441.6	0.773
441.8	0.824
442.0	0.905
442.2	0.862
442.4	0.854
442.6	0.834
442.8	0.931
443.0	0.985
443.2	0.930
443.4	0.883
443.6	0.809
443.8	0.741
444.0	0.792
444.2	0.762
444.4	0.731
444.6	0.821
444.8	0.867
445.0	0.860
445.2	0.910
445.4	0.782
445.6	0.735
445.8	0.779
446.0	0.799
446.2	0.859
446.4	0.968
446.6	0.929
446.8	0.821
447.0	0.774
447.2	0.759
447.4	0.728
447.6	0.819
447.8	0.917
448.0	1.070
448.2	1.240
448.4	1.276
448.6	1.144
448.8	1.027
449.0	0.928
449.2	0.963
449.4	0.897
449.6	0.842
449.8	0.799
450.0	0.737
450.2	0.854
450.4	0.944
450.6	0.896
450.8	0.938
451.0	0.915
451.2	0.804
451.4	0.828
451.6	0.900
451.8	0.839
452.0	0.905
452.2	0.839
452.4	0.784
452.6	0.847
452.8	0.928
453.0	0.903
453.2	0.874
453.4	0.875
453.6	0.907
453.8	1.022
454.0	1.158
454.2	1.173
454.4	1.058
454.6	0.950
454.8	0.810
455.0	0.779
455.2	0.762
455.4	0.701
455.6	0.696
455.8	0.731
456.0	0.782
456.2	0.838
456.4	0.777
456.6	0.853
456.8	0.858
457.0	0.991
457.2	1.020
457.4	1.020
457.6	0.851
457.8	0.753
458.0	0.691
458.2	0.881
458.4	1.037
458.6	1.172
458.8	1.209
459.0	1.062
459.2	1.058
459.4	1.055
459.6	1.018
459.8	1.086
460.0	1.182
460.2	1.164
460.4	1.178
460.6	1.100
460.8	1.183
461.0	1.390
461.2	1.530
461.4	1.525
461.6	1.443
461.8	1.249
462.0	1.139
462.2	0.949
462.4	1.048
462.6	1.068
462.8	1.076
463.0	1.198
463.2	1.317
463.4	1.324
463.6	1.449
463.8	1.395
464.0	1.278
464.2	1.224
464.4	1.310
464.6	1.568
464.8	1.519
465.0	1.508
465.2	1.489
465.4	1.477
465.6	1.499
465.8	1.655
466.0	1.465
466.2	1.542
466.4	1.605
466.6	1.822
466.8	1.846
467.0	1.821
467.2	1.739
467.4	1.807
467.6	1.766
467.8	1.901
468.0	1.957
468.2	1.977
468.4	2.220
468.6	2.321
468.8	2.196
469.0	2.254
469.2	2.229
469.4	2.042
469.6	2.190
469.8	2.287
470.0	2.416
470.2	2.635
470.4	2.757
470.6	2.653
470.8	2.863
471.0	3.108
471.2	3.405
471.4	3.653
471.6	3.543
471.8	3.297
472.0	3.267
472.2	3.493
472.4	3.522
472.6	3.628
472.8	3.565
473.0	3.780
473.2	3.823
473.4	4.078
473.6	4.190
473.8	4.332
474.0	4.541
474.2	4.920
474.4	4.990
474.6	5.243
474.8	5.253
475.0	5.520
475.2	5.643
475.4	5.877
475.6	5.952
475.8	5.986
476.0	5.820
476.2	6.079
476.4	6.009
476.6	6.066
476.8	6.126
477.0	6.668
477.2	7.170
477.4	7.629
477.6	7.827
477.8	8.044
478.0	7.990
478.2	8.710
478.4	8.637
478.6	9.146
478.8	10.20
479.0	11.24
479.2	11.56
479.4	11.85
479.6	11.12
479.8	10.96
480.0	10.96
480.2	11.36
480.4	12.15
480.6	13.30
480.8	14.30
481.0	14.85
481.2	14.72
481.4	14.78
481.6	15.41
481.8	15.95
482.0	16.64
482.2	17.10
482.4	17.33
482.6	18.12
482.8	19.30
483.0	20.17
483.2	21.07
483.4	21.63
483.6	21.96
483.8	22.13
484.0	22.49
484.2	23.61
484.4	24.99
484.6	26.29
484.8	27.28
485.0	28.09
485.2	29.34
485.4	30.42
485.6	30.79
485.8	31.28
486.0	31.55
486.2	33.17
486.4	35.02
486.6	36.16
486.8	37.61
487.0	39.15
487.2	39.97
487.4	40.59
487.6	40.94
487.8	41.16
488.0	42.92
488.2	44.89
488.4	47.18
488.6	48.96
488.8	50.49
489.0	52.06
489.2	53.97
489.4	55.83
489.6	57.79
489.8	58.61
490.0	59.34
490.2	61.19
490.4	63.52
490.6	65.84
490.8	67.92
491.0	68.99
491.2	70.10
491.4	72.91
491.6	76.47
491.8	78.77
492.0	80.60
492.2	81.82
492.4	83.26
492.6	86.03
492.8	89.07
493.0	90.85
493.2	91.95
493.4	94.42
493.6	98.57
493.8	101.5
494.0	103.9
494.2	107.1
494.4	109.3
494.6	112.7
494.8	116.9
495.0	119.4
495.2	121.2
495.4	124.8
495.6	126.7
495.8	129.7
496.0	132.4
496.2	136.2
496.4	139.4
496.6	143.3
496.8	146.3
497.0	150.9
497.2	152.8
497.4	155.2
497.6	158.7
497.8	163.3
498.0	167.6
498.2	172.6
498.4	175.3
498.6	178.1
498.8	182.9
499.0	187.5
499.2	190.4
499.4	194.0
499.6	197.0
499.8	200.8
500.0	205.7
500.2	210.6
500.4	214.3
500.6	219.6
500.8	223.4
501.0	227.7
501.2	233.6
501.4	239.1
501.6	244.0
501.8	251.3
502.0	254.7
502.2	257.8
502.4	261.0
502.6	263.5
502.8	267.7
503.0	275.8
503.2	281.0
503.4	285.3
503.6	289.7
503.8	294.0
504.0	298.7
504.2	305.7
504.4	312.7
504.6	316.0
504.8	319.5
505.0	322.3
505.2	327.1
505.4	332.4
505.6	339.2
505.8	344.9
506.0	353.2
506.2	361.3
506.4	369.3
506.6	373.1
506.8	375.9
507.0	378.7
507.2	384.4
507.4	391.6
507.6	397.5
507.8	402.0
508.0	409.6
508.2	414.8
508.4	420.4
508.6	426.1
508.8	429.5
509.0	434.1
509.2	441.1
509.4	445.6
509.6	449.8
509.8	452.3
510.0	455.8
510.2	465.3
510.4	472.2
510.6	477.0
510.8	483.3
511.0	487.3
511.2	493.7
511.4	502.8
511.6	510.6
511.8	515.3
512.0	521.6
512.2	526.2
512.4	532.1
512.6	535.3
512.8	540.3
513.0	542.8
513.2	546.9
513.4	551.3
513.6	560.1
513.8	567.6
514.0	575.8
514.2	582.9
514.4	586.0
514.6	588.6
514.8	592.6
515.0	598.1
515.2	603.8
515.4	610.3
515.6	613.9
515.8	620.3
516.0	626.2
516.2	633.0
516.4	636.2
516.6	639.5
516.8	643.0
517.0	648.9
517.2	655.0
517.4	660.1
517.6	662.7
517.8	665.4
518.0	669.0
518.2	675.8
518.4	679.8
518.6	685.7
518.8	691.9
519.0	696.2
519.2	702.1
519.4	707.4
519.6	709.8
519.8	712.5
520.0	717.4
520.2	721.0
520.4	726.2
520.6	728.1
520.8	731.6
521.0	734.5
521.2	739.6
521.4	745.6
521.6	752.4
521.8	756.1
522.0	760.5
522.2	761.9
522.4	764.5
522.6	767.3
522.8	771.7
523.0	773.6
523.2	775.9
523.4	780.2
523.6	787.3
523.8	794.6
524.0	799.3
524.2	801.8
524.4	799.9
524.6	801.3
524.8	803.6
525.0	811.4
525.2	815.5
525.4	823.5
525.6	823.7
525.8	825.0
526.0	822.6
526.2	821.8
526.4	821.2
526.6	828.5
526.8	834.9
527.0	841.0
527.2	841.2
527.4	836.8
527.6	837.1
527.8	840.1
528.0	844.8
528.2	848.9
528.4	853.2
528.6	855.4
528.8	858.1
529.0	861.5
529.2	863.2
529.4	864.9
529.6	864.4
529.8	862.4
530.0	860.4
530.2	862.1
530.4	866.4
530.6	868.6
530.8	870.3
531.0	871.5
531.2	872.4
531.4	875.5
531.6	880.2
531.8	880.1
532.0	882.7
532.2	884.9
532.4	886.9
532.6	888.6
532.8	889.0
533.0	887.5
533.2	889.0
533.4	889.5
533.6	889.2
533.8	888.8
534.0	893.2
534.2	894.8
534.4	897.5
534.6	896.8
534.8	895.5
535.0	897.6
535.2	903.1
535.4	903.1
535.6	901.2
535.8	897.9
536.0	896.0
536.2	898.8
536.4	901.5
536.6	902.9
536.8	905.4
537.0	906.1
537.2	904.9
537.4	905.1
537.6	903.5
537.8	898.0
538.0	896.3
538.2	898.5
538.4	902.5
538.6	905.7
538.8	905.0
539.0	899.2
539.2	898.9
539.4	903.2
539.6	906.3
539.8	904.3
540.0	900.3
540.2	896.2
540.4	894.0
540.6	898.7
540.8	901.5
541.0	901.9
541.2	904.8
541.4	903.9
541.6	900.3
541.8	900.0
542.0	896.9
542.2	895.5
542.4	893.9
542.6	894.4
542.8	895.0
543.0	894.5
543.2	897.7
543.4	902.4
543.6	904.8
543.8	901.9
544.0	896.5
544.2	890.2
544.4	889.5
544.6	891.0
544.8	891.9
545.0	889.5
545.2	887.8
545.4	888.0
545.6	887.9
545.8	886.0
546.0	884.2
546.2	883.4
546.4	879.6
546.6	882.1
546.8	884.0
547.0	881.7
547.2	880.1
547.4	874.2
547.6	869.6
547.8	872.0
548.0	873.5
548.2	874.0
548.4	872.7
548.6	869.0
548.8	868.5
549.0	868.0
549.2	863.6
549.4	860.0
549.6	857.1
549.8	856.3
550.0	854.8
550.2	856.9
550.4	857.3
550.6	853.7
550.8	853.6
551.0	852.6
551.2	847.6
551.4	847.3
551.6	847.8
551.8	848.6
552.0	849.5
552.2	847.2
552.4	843.8
552.6	841.9
552.8	840.8
553.0	843.3
553.2	842.2
553.4	839.5
553.6	839.1
553.8	836.2
554.0	829.3
554.2	824.3
554.4	822.1
554.6	820.7
554.8	819.6
555.0	819.9
555.2	817.3
555.4	816.5
555.6	815.8
555.8	817.5
556.0	815.4
556.2	817.1
556.4	814.6
556.6	812.3
556.8	807.0
557.0	807.6
557.2	804.3
557.4	802.4
557.6	801.6
557.8	799.2
558.0	797.1
558.2	797.8
558.4	795.2
558.6	790.6
558.8	787.6
559.0	786.2
559.2	785.3
559.4	785.4
559.6	781.3
559.8	774.6
560.0	772.3
560.2	773.7
560.4	774.6
560.6	775.1
560.8	770.4
561.0	765.0
561.2	766.8
561.4	766.4
561.6	761.9
561.8	760.3
562.0	755.6
562.2	750.6
562.4	749.1
562.6	746.3
562.8	738.9
563.0	739.1
563.2	741.6
563.4	743.4
563.6	744.0
563.8	743.0
564.0	737.3
564.2	732.7
564.4	731.8
564.6	730.9
564.8	730.2
565.0	729.4
565.2	724.8
565.4	720.9
565.6	721.0
565.8	717.8
566.0	714.5
566.2	711.6
566.4	706.3
566.6	702.8
566.8	706.6
567.0	706.2
567.2	706.0
567.4	704.2
567.6	702.4
567.8	699.6
568.0	697.1
568.2	692.7
568.4	689.2
568.6	687.5
568.8	687.7
569.0	688.7
569.2	685.9
569.4	682.3
569.6	679.3
569.8	679.0
570.0	675.6
570.2	673.9
570.4	672.9
570.6	667.7
570.8	664.3
571.0	663.5
571.2	661.5
571.4	659.9
571.6	659.8
571.8	655.2
572.0	652.1
572.2	651.1
572.4	650.3
572.6	647.3
572.8	646.1
573.0	643.0
573.2	638.8
573.4	635.2
573.6	633.9
573.8	631.4
574.0	630.5
574.2	629.3
574.4	626.2
574.6	626.4
574.8	627.5
575.0	625.8
575.2	622.6
575.4	618.7
575.6	613.3
575.8	610.4
576.0	608.6
576.2	606.7
576.4	605.9
576.6	604.5
576.8	604.0
577.0	600.2
577.2	598.2
577.4	595.0
577.6	592.6
577.8	589.2
578.0	588.6
578.2	586.0
578.4	583.9
578.6	579.8
578.8	577.2
579.0	573.1
579.2	571.6
579.4	572.5
579.6	571.0
579.8	568.6
580.0	565.0
580.2	561.6
580.4	559.5
580.6	559.7
580.8	557.4
581.0	553.5
581.2	549.0
581.4	547.4
581.6	548.6
581.8	546.1
582.0	545.0
582.2	541.0
582.4	538.4
582.6	536.9
582.8	539.4
583.0	537.9
583.2	536.5
583.4	533.2
583.6	528.9
583.8	524.3
584.0	521.2
584.2	520.5
584.4	520.1
584.6	519.2
584.8	516.7
585.0	515.0
585.2	511.1
585.4	509.7
585.6	506.8
585.8	503.6
586.0	500.2
586.2	497.9
586.4	496.1
586.6	497.1
586.8	494.0
587.0	493.3
587.2	490.9
587.4	488.0
587.6	487.5
587.8	486.0
588.0	480.6
588.2	478.1
588.4	476.1
588.6	473.8
588.8	473.7
589.0	474.0
589.2	471.4
589.4	472.8
589.6	473.1
589.8	470.7
590.0	465.5
590.2	462.6
590.4	459.6
590.6	461.3
590.8	462.3
591.0	459.9
591.2	453.5
591.4	451.1
591.6	446.8
591.8	444.7
592.0	445.6
592.2	446.1
592.4	443.6
592.6	443.6
592.8	440.3
593.0	438.2
593.2	437.7
593.4	437.6
593.6	432.3
593.8	427.8
594.0	424.6
594.2	424.7
594.4	424.0
594.6	423.4
594.8	418.8
595.0	416.4
595.2	415.4
595.4	415.2
595.6	411.9
595.8	411.0
596.0	408.3
596.2	407.3
596.4	405.7
596.6	403.6
596.8	399.6
597.0	398.5
597.2	396.0
597.4	394.5
597.6	391.0
597.8	388.8
598.0	387.2
598.2	387.9
598.4	387.5
598.6	386.5
598.8	384.9
599.0	383.1
599.2	379.2
599.4	377.9
599.6	375.6
599.8	372.3
600.0	372.5
600.2	374.5
600.4	372.8
600.6	370.6
600.8	368.1
601.0	364.8
601.2	362.7
601.4	360.8
601.6	357.5
601.8	356.5
602.0	354.7
602.2	353.7
602.4	352.7
602.6	351.4
602.8	349.1
603.0	349.8
603.2	348.2
603.4	345.8
603.6	343.8
603.8	343.6
604.0	342.4
604.2	342.7
604.4	341.1
604.6	336.7
604.8	334.0
605.0	332.6
605.2	331.0
605.4	331.0
605.6	329.5
605.8	326.9
606.0	323.8
606.2	320.9
606.4	318.0
606.6	316.9
606.8	316.6
607.0	317.5
607.2	316.6
607.4	314.1
607.6	311.6
607.8	310.1
608.0	308.8
608.2	307.7
608.4	307.2
608.6	304.3
608.8	303.8
609.0	304.5
609.2	302.6
609.4	299.4
609.6	298.0
609.8	296.6
610.0	296.4
610.2	294.8
610.4	292.3
610.6	290.4
610.8	289.8
611.0	290.4
611.2	289.2
611.4	286.7
611.6	285.1
611.8	282.3
612.0	280.9
612.2	281.5
612.4	282.1
612.6	280.8
612.8	280.9
613.0	277.5
613.2	273.4
613.4	271.0
613.6	270.0
613.8	268.2
614.0	269.1
614.2	269.4
614.4	267.0
614.6	264.0
614.8	261.1
615.0	260.2
615.2	258.7
615.4	259.1
615.6	258.9
615.8	259.2
616.0	257.8
616.2	256.8
616.4	254.3
616.6	252.5
616.8	251.2
617.0	250.5
617.2	249.2
617.4	245.8
617.6	243.8
617.8	240.5
618.0	240.1
618.2	240.8
618.4	241.5
618.6	240.7
618.8	237.6
619.0	233.6
619.2	231.6
619.4	229.1
619.6	228.1
619.8	229.0
620.0	229.2
620.2	228.0
620.4	226.7
620.6	225.0
620.8	223.4
621.0	222.9
621.2	222.5
621.4	220.1
621.6	221.1
621.8	220.1
622.0	218.3
622.2	216.9
622.4	216.0
622.6	214.9
622.8	214.6
623.0	211.5
623.2	210.7
623.4	209.6
623.6	208.8
623.8	206.9
624.0	204.1
624.2	203.5
624.4	203.6
624.6	203.6
624.8	203.7
625.0	203.5
625.2	203.4
625.4	202.7
625.6	201.4
625.8	199.3
626.0	197.2
626.2	195.2
626.4	194.2
626.6	191.3
626.8	190.3
627.0	189.0
627.2	188.5
627.4	188.3
627.6	187.9
627.8	185.9
628.0	184.9
628.2	184.4
628.4	183.3
628.6	182.6
628.8	181.1
629.0	179.8
629.2	178.8
629.4	178.3
629.6	177.4
629.8	177.0
630.0	175.9
630.2	173.9
630.4	172.7
630.6	171.6
630.8	170.9
631.0	170.6
631.2	170.4
631.4	168.9
631.6	168.1
631.8	167.5
632.0	166.0
632.2	164.5
632.4	163.5
632.6	161.8
632.8	161.0
633.0	161.2
633.2	160.2
633.4	159.8
633.6	157.8
633.8	155.0
634.0	154.2
634.2	154.9
634.4	154.3
634.6	155.0
634.8	153.5
635.0	152.6
635.2	150.6
635.4	149.8
635.6	148.6
635.8	148.5
636.0	147.2
636.2	146.7
636.4	144.8
636.6	144.0
636.8	144.9
637.0	145.2
637.2	143.7
637.4	142.5
637.6	140.7
637.8	139.3
638.0	138.5
638.2	138.4
638.4	137.9
638.6	137.3
638.8	135.9
639.0	133.5
639.2	132.8
639.4	132.5
639.6	133.0
639.8	131.3
640.0	130.6
640.2	129.4
640.4	129.8
640.6	129.6
640.8	129.3
641.0	127.6
641.2	126.5
641.4	125.7
641.6	124.9
641.8	124.8
642.0	124.3
642.2	124.4
642.4	123.4
642.6	123.1
642.8	122.8
643.0	121.4
643.2	120.4
643.4	119.2
643.6	117.7
643.8	116.6
644.0	116.3
644.2	115.2
644.4	114.8
644.6	113.8
644.8	112.3
645.0	111.4
645.2	111.5
645.4	111.6
645.6	112.1
645.8	110.7
646.0	110.3
646.2	110.4
646.4	110.1
646.6	109.6
646.8	108.6
647.0	106.2
647.2	105.5
647.4	104.7
647.6	103.9
647.8	102.8
648.0	102.1
648.2	102.7
648.4	102.5
648.6	102.0
648.8	100.6
649.0	98.91
649.2	98.67
649.4	99.51
649.6	99.00
649.8	98.43
650.0	98.11
650.2	97.40
650.4	97.12
650.6	97.00
650.8	96.60
651.0	96.34
651.2	95.87
651.4	95.10
651.6	93.60
651.8	92.88
652.0	92.17
652.2	91.71
652.4	90.78
652.6	90.23
652.8	89.12
653.0	88.60
653.2	87.48
653.4	88.26
653.6	88.37
653.8	88.45
654.0	87.50
654.2	86.54
654.4	85.39
654.6	84.56
654.8	83.99
655.0	83.97
655.2	83.13
655.4	83.01
655.6	82.72
655.8	80.85
656.0	80.51
656.2	79.73
656.4	80.39
656.6	81.11
656.8	81.17
657.0	80.48
657.2	79.24
657.4	77.80
657.6	76.33
657.8	75.79
658.0	74.48
658.2	73.84
658.4	73.28
658.6	73.60
658.8	73.31
659.0	73.77
659.2	73.19
659.4	72.23
659.6	71.38
659.8	71.57
660.0	71.53
660.2	71.09
660.4	70.83
660.6	70.94
660.8	71.10
661.0	71.43
661.2	70.42
661.4	69.19
661.6	68.02
661.8	67.79
662.0	67.80
662.2	67.32
662.4	66.17
662.6	65.31
662.8	64.65
663.0	63.23
663.2	62.86
663.4	62.86
663.6	62.94
663.8	62.74
664.0	63.14
664.2	62.53
664.4	61.77
664.6	62.27
664.8	62.57
665.0	62.21
665.2	62.77
665.4	61.94
665.6	60.43
665.8	59.86
666.0	59.17
666.2	58.81
666.4	59.12
666.6	58.64
666.8	57.70
667.0	57.55
667.2	56.78
667.4	55.77
667.6	54.95
667.8	54.94
668.0	54.63
668.2	55.13
668.4	55.52
668.6	54.64
668.8	54.04
669.0	53.73
669.2	53.16
669.4	52.87
669.6	52.40
669.8	51.42
670.0	51.17
670.2	50.89
670.4	50.12
670.6	50.63
670.8	50.42
671.0	50.90
671.2	50.82
671.4	50.88
671.6	50.16
671.8	49.51
672.0	48.86
672.2	47.89
672.4	46.86
672.6	47.15
672.8	47.24
673.0	47.89
673.2	49.18
673.4	49.24
673.6	48.01
673.8	46.71
674.0	44.97
674.2	44.21
674.4	44.33
674.6	44.81
674.8	44.70
675.0	45.08
675.2	45.54
675.4	44.95
675.6	43.72
675.8	43.27
676.0	43.11
676.2	43.04
676.4	42.82
676.6	42.24
676.8	40.80
677.0	41.19
677.2	40.72
677.4	40.90
677.6	41.24
677.8	41.87
678.0	41.82
678.2	42.20
678.4	41.10
678.6	40.31
678.8	39.43
679.0	38.48
679.2	37.69
679.4	37.96
679.6	38.40
679.8	39.01
680.0	39.16
680.2	38.18
680.4	36.95
680.6	36.93
680.8	36.88
681.0	37.23
681.2	37.09
681.4	35.73
681.6	35.19
681.8	35.18
682.0	35.54
682.2	35.89
682.4	36.00
682.6	34.94
682.8	34.62
683.0	33.81
683.2	33.44
683.4	32.92
683.6	33.67
683.8	33.30
684.0	33.64
684.2	33.46
684.4	33.01
684.6	32.28
684.8	32.11
685.0	31.41
685.2	31.44
685.4	31.21
685.6	30.97
685.8	30.26
686.0	29.45
686.2	29.78
686.4	30.10
686.6	30.24
686.8	30.04
687.0	29.58
687.2	28.63
687.4	29.19
687.6	29.33
687.8	29.51
688.0	29.14
688.2	29.25
688.4	29.13
688.6	29.26
688.8	29.28
689.0	29.02
689.2	28.58
689.4	28.18
689.6	27.63
689.8	26.47
690.0	26.63
690.2	26.77
690.4	27.00
690.6	26.74
690.8	26.30
691.0	25.99
691.2	25.87
691.4	26.07
691.6	25.94
691.8	26.13
692.0	26.58
692.2	27.05
692.4	26.14
692.6	25.46
692.8	24.89
693.0	24.96
693.2	24.55
693.4	24.66
693.6	24.59
693.8	24.54
694.0	24.34
694.2	24.11
694.4	23.28
694.6	23.27
694.8	23.65
695.0	23.46
695.2	23.20
695.4	22.88
695.6	22.50
695.8	22.60
696.0	22.47
696.2	21.89
696.4	22.22
696.6	22.18
696.8	22.00
697.0	22.56
697.2	21.69
697.4	21.49
697.6	21.62
697.8	21.47
698.0	21.20
698.2	21.12
698.4	20.13
698.6	20.32
698.8	20.59
699.0	21.21
699.2	21.45
699.4	22.05
699.6	21.74
699.8	20.86
700.0	19.79
700.2	19.42
700.4	19.16
700.6	19.95
700.8	20.18
701.0	19.79
701.2	19.25
701.4	19.50
701.6	19.69
701.8	19.89
702.0	19.69
702.2	19.62
702.4	19.36
702.6	19.07
702.8	18.88
703.0	18.75
703.2	18.94
703.4	18.97
703.6	19.05
703.8	18.83
704.0	18.11
704.2	17.91
704.4	17.79
704.6	17.22
704.8	17.34
705.0	17.44
705.2	17.64
705.4	18.04
705.6	18.01
705.8	18.05
706.0	18.14
706.2	18.11
706.4	17.80
706.6	16.76
706.8	16.09
707.0	15.68
707.2	15.96
707.4	16.53
707.6	16.42
707.8	16.71
708.0	17.05
708.2	16.70
708.4	16.66
708.6	16.37
708.8	16.06
709.0	16.28
709.2	16.51
709.4	16.18
709.6	16.04
709.8	15.68
710.0	15.54
710.2	15.57
710.4	15.21
710.6	15.33
710.8	15.09
711.0	14.86
711.2	15.32
711.4	15.51
711.6	15.05
711.8	14.80
712.0	14.43
712.2	14.48
712.4	14.87
712.6	14.82
712.8	14.75
713.0	14.24
713.2	13.90
713.4	13.76
713.6	13.68
713.8	13.76
714.0	13.68
714.2	13.73
714.4	13.27
714.6	13.17
714.8	13.40
715.0	13.80
715.2	13.66
715.4	13.53
715.6	12.91
715.8	12.63
716.0	12.29
716.2	12.46
716.4	12.17
716.6	11.89
716.8	12.21
717.0	12.48
717.2	12.37
717.4	12.68
717.6	12.19
717.8	12.10
718.0	12.31
718.2	12.23
718.4	12.26
718.6	12.36
718.8	11.76
719.0	11.45
719.2	11.26
719.4	10.85
719.6	10.68
719.8	10.76
720.0	10.46
720.2	10.50
720.4	11.00
720.6	11.21
720.8	11.02
721.0	11.18
721.2	10.94
721.4	10.90
721.6	11.35
721.8	11.03
722.0	10.86
722.2	10.72
722.4	10.65
722.6	10.42
722.8	10.75
723.0	10.44
723.2	10.39
723.4	9.894
723.6	9.941
723.8	9.744
724.0	9.863
724.2	9.987
724.4	9.934
724.6	9.513
724.8	9.486
725.0	9.452
725.2	9.521
725.4	9.827
725.6	9.983
725.8	9.734
726.0	9.429
726.2	9.413
726.4	9.165
726.6	9.021
726.8	8.913
727.0	8.768
727.2	8.723
727.4	9.024
727.6	9.036
727.8	8.998
728.0	9.083
728.2	8.798
728.4	8.624
728.6	8.313
728.8	8.041
729.0	8.178
729.2	8.302
729.4	8.227
729.6	8.381
729.8	8.454
730.0	8.230
730.2	8.397
730.4	7.892
730.6	7.606
730.8	7.670
731.0	7.650
731.2	7.633
731.4	7.692
731.6	7.300
731.8	7.429
732.0	7.679
732.2	7.627
732.4	7.708
732.6	7.329
732.8	7.303
733.0	7.357
733.2	7.256
733.4	7.197
733.6	7.073
733.8	7.024
734.0	7.252
734.2	7.176
734.4	7.028
734.6	7.079
734.8	6.935
735.0	6.933
735.2	6.743
735.4	6.636
735.6	6.853
735.8	6.983
736.0	6.880
736.2	6.530
736.4	6.181
736.6	6.066
736.8	6.258
737.0	6.459
737.2	6.325
737.4	6.453
737.6	6.309
737.8	6.272
738.0	6.189
738.2	6.286
738.4	6.034
738.6	6.146
738.8	5.979
739.0	5.877
739.2	5.774
739.4	5.744
739.6	5.825
739.8	5.932
740.0	6.096
740.2	5.969
740.4	5.911
740.6	5.920
740.8	5.834
741.0	5.632
741.2	5.555
741.4	5.325
741.6	5.181
741.8	5.401
742.0	5.512
742.2	5.692
742.4	5.745
742.6	5.596
742.8	5.333
743.0	5.621
743.2	5.800
743.4	5.711
743.6	5.369
743.8	5.085
744.0	4.900
744.2	5.135
744.4	5.244
744.6	5.089
744.8	5.117
745.0	5.177
745.2	5.204
745.4	4.971
745.6	4.732
745.8	4.580
746.0	4.740
746.2	4.651
746.4	4.789
746.6	4.816
746.8	4.853
747.0	4.844
747.2	4.852
747.4	4.725
747.6	4.679
747.8	4.558
748.0	4.535
748.2	4.438
748.4	4.340
748.6	4.259
748.8	4.119
749.0	4.100
749.2	4.044
749.4	3.919
749.6	3.884
749.8	3.913
750.0	4.256
750.2	4.467
750.4	4.376
750.6	4.183
750.8	4.096
751.0	3.871
751.2	4.102
751.4	4.094
751.6	4.245
751.8	4.443
752.0	4.365
752.2	4.104
752.4	4.120
752.6	4.008
752.8	4.115
753.0	4.279
753.2	4.030
753.4	3.981
753.6	4.111
753.8	4.073
754.0	3.842
754.2	3.879
754.4	3.934
754.6	3.874
754.8	3.920
755.0	3.834
755.2	3.317
755.4	3.206
755.6	3.442
755.8	3.543
756.0	3.661
756.2	3.807
756.4	3.495
756.6	3.405
756.8	3.551
757.0	3.613
757.2	3.517
757.4	3.521
757.6	3.441
757.8	3.226
758.0	3.203
758.2	3.110
758.4	3.026
758.6	3.160
758.8	3.440
759.0	3.353
759.2	3.287
759.4	3.248
759.6	3.257
759.8	3.259
760.0	3.317
760.2	3.417
760.4	3.414
760.6	3.364
760.8	3.406
761.0	3.462
761.2	3.328
761.4	3.405
761.6	3.267
761.8	3.015
762.0	2.809
762.2	2.736
762.4	2.534
762.6	2.602
762.8	2.664
763.0	2.768
763.2	2.723
763.4	2.707
763.6	2.625
763.8	2.538
764.0	2.512
764.2	2.612
764.4	2.674
764.6	2.983
764.8	3.196
765.0	3.140
765.2	3.059
765.4	2.856
765.6	2.626
765.8	2.783
766.0	2.815
766.2	2.804
766.4	2.956
766.6	2.638
766.8	2.361
767.0	2.335
767.2	2.154
767.4	2.273
767.6	2.557
767.8	2.520
768.0	2.536
768.2	2.556
768.4	2.362
768.6	2.351
768.8	2.409
769.0	2.448
769.2	2.550
769.4	2.693
769.6	2.749
769.8	2.727
770.0	2.534
770.2	2.400
770.4	2.491
770.6	2.549
770.8	2.572
771.0	2.547
771.2	2.326
771.4	2.273
771.6	2.306
771.8	2.295
772.0	2.336
772.2	2.298
772.4	2.129
772.6	1.990
772.8	1.879
773.0	1.902
773.2	2.099
773.4	2.229
773.6	2.314
773.8	2.315
774.0	2.351
774.2	2.338
774.4	2.337
774.6	2.440
774.8	2.400
775.0	2.199
775.2	2.066
775.4	1.945
775.6	1.926
775.8	2.062
776.0	2.147
776.2	2.084
776.4	2.045
776.6	1.946
776.8	2.029
777.0	1.980
777.2	2.014
777.4	2.126
777.6	2.070
777.8	1.992
778.0	1.988
778.2	1.886
778.4	2.077
778.6	2.307
778.8	2.254
779.0	2.243
779.2	2.107
779.4	2.051
779.6	2.151
779.8	2.123
780.0	1.994
780.2	1.946
780.4	1.994
780.6	2.048
780.8	2.084
781.0	2.145
781.2	2.106
781.4	2.006
781.6	2.048
781.8	1.926
782.0	1.756
782.2	1.742
782.4	1.661
782.6	1.740
782.8	1.979
783.0	1.951
783.2	1.835
783.4	1.795
783.6	1.726
783.8	1.918
784.0	2.122
784.2	2.099
784.4	2.014
784.6	1.909
784.8	1.759
785.0	1.743
785.2	1.764
785.4	1.720
785.6	1.905
785.8	2.070
786.0	2.173
786.2	2.132
786.4	2.058
786.6	1.852
786.8	1.975
787.0	1.983
787.2	1.981
787.4	1.926
787.6	1.857
787.8	1.777
788.0	1.816
788.2	1.754
788.4	1.836
788.6	2.003
788.8	2.226
789.0	2.324
789.2	2.300
789.4	2.086
789.6	1.853
789.8	1.759
790.0	1.815
790.2	1.918
790.4	1.995
790.6	2.019
790.8	1.840
791.0	1.761
791.2	1.694
791.4	1.667
791.6	1.737
791.8	1.883
792.0	1.949
792.2	2.019
792.4	2.086
792.6	1.879
792.8	1.907
793.0	1.830
793.2	1.740
793.4	1.747
793.6	1.804
793.8	1.853
794.0	2.022
794.2	2.303
794.4	2.470
794.6	2.531
794.8	2.435
795.0	2.279
795.2	2.023
795.4	1.983
795.6	1.912
795.8	1.846
796.0	1.929
796.2	1.872
796.4	1.933
796.6	1.977
796.8	2.037
797.0	2.045
797.2	1.991
797.4	1.855
797.6	1.884
797.8	1.832
798.0	1.922
798.2	1.874
798.4	1.890
798.6	1.919
798.8	1.976
799.0	1.911
799.2	1.999
799.4	1.898
799.6	1.963
799.8	1.933
800.0	1.698

