Sample:	'20211010A(EX)
File name:	B-CDs EX.FDS
Run date:	'12:18:00, 05/20/2023
Operator:	Administrator
Comment:	'

Instrument
Model:	F-4700 FL Spectrophotometer
Serial number:	2019-001
ROM Version:	5J24010 00

Instrument parameters
Measurement type:	Wavelength scan
Scan mode:	Excitation
Data mode:	Fluorescence
EM WL:	429.0 nm
EX  Start WL:	215.0 nm
EX  End WL:	425.0 nm
Scan speed:	1200 nm/min
Delay:	0.0 s
EX Slit:	5.0 nm
EM Slit:	10.0 nm
PMT Voltage:	800 V
Response:	0.002 s
Corrected spectra:	Off
Shutter control:	On

Processing performed
Savitsky-Golay smoothed
Smoothing order:	3
Number of points:	7
Number of times:	1

Peak integration
Integration method:	Rectangular
Sensitivity:	1
Threshold:	1.000

Peaks
No.	Start(nm)	Apex(nm)	End(nm)	Height(Data)	Valley(nm)	Valley(Data)
1	216.6	218.2	220.6	901.2	220.6	82.42
2	220.6	221.4	223.0	631.2	223.0	204.6
3	223.0	224.0	225.0	603.8	225.0	245.3
4	225.0	226.4	227.0	700.1	227.0	265.7
5	227.0	230.2	232.8	678.2	232.8	422.6
6	232.8	233.4	234.2	599.3	234.2	320.7
7	234.2	236.6	237.6	723.6	237.6	378.1
8	237.6	239.6	243.6	839.8	243.6	402.0
9	243.6	245.4	246.4	568.7	246.4	451.6
10	246.4	248.0	249.2	643.9	249.2	332.0
11	249.2	252.2	254.8	573.1	254.8	409.7
12	254.8	256.6	257.2	545.4	257.2	438.3
13	257.2	258.6	259.8	542.3	259.8	437.6
14	259.8	261.4	262.0	538.7	262.0	415.4
15	262.0	265.0	265.6	684.2	265.6	606.4
16	265.6	269.0	269.8	971.8	269.8	851.6
17	269.8	281.2	282.6	1983	282.6	1840
18	282.6	286.4	286.8	2369	286.8	2205
19	286.8	289.0	289.8	2486	289.8	2210
20	289.8	291.2	292.6	2314	292.6	2202
21	292.6	293.0	308.6	2297	308.6	651.4
22	308.6	309.6	313.0	714.6	313.0	537.4
23	313.0	314.0	315.6	553.1	315.6	493.0
24	315.6	316.6	317.2	539.1	317.2	470.0
25	317.2	319.4	320.8	506.0	320.8	448.7
26	320.8	321.8	322.6	492.1	322.6	443.6
27	322.6	324.0	324.8	487.2	324.8	456.3
28	324.8	327.4	328.4	511.1	328.4	445.1
29	328.4	330.6	332.8	514.3	332.8	447.2
30	332.8	333.2	334.0	472.0	334.0	449.9
31	334.0	335.4	335.8	469.0	335.8	448.1
32	335.8	336.6	337.2	498.1	337.2	458.8
33	337.2	338.2	339.2	495.7	339.2	470.0
34	339.2	340.8	341.2	510.2	341.2	465.6
35	341.2	342.6	345.2	524.0	345.2	454.5
36	345.2	346.2	348.6	506.2	348.6	468.1
37	348.6	350.8	353.0	546.0	353.0	499.8
38	353.0	354.8	355.6	559.0	355.6	494.2
39	355.6	356.2	357.6	574.2	357.6	483.2
40	357.6	358.6	360.4	571.4	360.4	537.8
41	360.4	361.2	362.0	581.7	362.0	522.8
42	362.0	362.8	363.4	598.5	363.4	544.3
43	363.4	366.0	369.0	611.5	369.0	540.3
44	369.0	369.8	370.2	610.5	370.2	543.5
45	370.2	371.8	372.4	572.8	372.4	525.7
46	372.4	373.0	374.4	574.1	374.4	522.5
47	374.4	375.2	377.2	555.9	377.2	499.0
48	377.2	378.0	381.2	553.5	381.2	480.3
49	381.2	383.2	384.0	508.9	384.0	436.5
50	384.0	386.2	387.2	505.2	387.2	426.2
51	387.2	389.2	390.2	468.2	390.2	438.9
52	390.2	390.8	391.8	457.3	391.8	428.5
53	391.8	392.8	393.8	457.0	393.8	422.3
54	393.8	394.8	395.8	500.6	395.8	446.8
55	395.8	399.2	401.0	551.6	401.0	525.3
56	401.0	423.4	425.0	*****   	425.0	*****   

Data points
nm	Data
215.0	1317
215.2	879.2
215.4	695.5
215.6	671.7
215.8	664.2
216.0	627.8
216.2	707.6
216.4	566.4
216.6	515.9
216.8	557.7
217.0	694.9
217.2	608.8
217.4	639.9
217.6	634.1
217.8	758.6
218.0	760.7
218.2	901.2
218.4	871.0
218.6	614.6
218.8	483.5
219.0	470.6
219.2	488.8
219.4	567.8
219.6	732.7
219.8	636.2
220.0	618.6
220.2	433.3
220.4	254.8
220.6	82.42
220.8	233.0
221.0	367.6
221.2	532.1
221.4	631.2
221.6	576.1
221.8	383.6
222.0	351.7
222.2	433.3
222.4	361.7
222.6	398.3
222.8	353.7
223.0	204.6
223.2	205.9
223.4	401.6
223.6	510.5
223.8	475.5
224.0	603.8
224.2	513.6
224.4	519.7
224.6	417.8
224.8	375.0
225.0	245.3
225.2	517.3
225.4	442.2
225.6	538.3
225.8	468.3
226.0	578.9
226.2	551.0
226.4	700.1
226.6	491.2
226.8	408.5
227.0	265.7
227.2	309.6
227.4	286.1
227.6	362.9
227.8	462.2
228.0	482.1
228.2	500.5
228.4	433.4
228.6	402.3
228.8	396.9
229.0	539.4
229.2	460.5
229.4	504.0
229.6	438.4
229.8	503.1
230.0	573.8
230.2	678.2
230.4	605.5
230.6	507.5
230.8	397.9
231.0	488.9
231.2	468.1
231.4	524.2
231.6	489.1
231.8	449.6
232.0	440.9
232.2	543.1
232.4	463.4
232.6	448.1
232.8	422.6
233.0	471.4
233.2	546.6
233.4	599.3
233.6	561.5
233.8	503.0
234.0	424.9
234.2	320.7
234.4	397.3
234.6	414.8
234.8	424.0
235.0	468.9
235.2	509.0
235.4	468.3
235.6	517.1
235.8	537.8
236.0	477.4
236.2	515.5
236.4	597.3
236.6	723.6
236.8	703.6
237.0	636.1
237.2	494.6
237.4	396.1
237.6	378.1
237.8	475.6
238.0	486.0
238.2	509.2
238.4	599.6
238.6	599.7
238.8	685.9
239.0	681.2
239.2	779.5
239.4	820.1
239.6	839.8
239.8	760.8
240.0	745.4
240.2	619.1
240.4	643.0
240.6	597.3
240.8	573.2
241.0	495.4
241.2	563.3
241.4	643.9
241.6	611.6
241.8	620.5
242.0	530.0
242.2	497.0
242.4	548.4
242.6	654.0
242.8	611.4
243.0	644.9
243.2	479.2
243.4	443.6
243.6	402.0
243.8	476.3
244.0	515.4
244.2	543.6
244.4	464.7
244.6	429.8
244.8	457.9
245.0	533.3
245.2	567.3
245.4	568.7
245.6	554.0
245.8	542.1
246.0	543.4
246.2	515.0
246.4	451.6
246.6	485.0
246.8	532.4
247.0	556.2
247.2	566.2
247.4	583.1
247.6	566.9
247.8	627.2
248.0	643.9
248.2	632.5
248.4	550.8
248.6	487.1
248.8	395.2
249.0	337.0
249.2	332.0
249.4	426.6
249.6	472.7
249.8	483.4
250.0	453.9
250.2	410.2
250.4	365.9
250.6	402.6
250.8	476.4
251.0	542.3
251.2	536.9
251.4	517.1
251.6	494.7
251.8	493.6
252.0	544.1
252.2	573.1
252.4	504.3
252.6	485.3
252.8	524.7
253.0	557.9
253.2	567.1
253.4	516.4
253.6	450.5
253.8	423.4
254.0	481.2
254.2	503.1
254.4	495.1
254.6	448.9
254.8	409.7
255.0	424.7
255.2	462.7
255.4	481.7
255.6	451.3
255.8	418.8
256.0	411.9
256.2	479.7
256.4	514.9
256.6	545.4
256.8	515.3
257.0	464.1
257.2	438.3
257.4	458.8
257.6	469.1
257.8	475.7
258.0	472.4
258.2	501.9
258.4	519.8
258.6	542.3
258.8	514.4
259.0	498.3
259.2	466.4
259.4	477.5
259.6	465.7
259.8	437.6
260.0	465.7
260.2	486.4
260.4	487.8
260.6	493.8
260.8	490.2
261.0	501.6
261.2	538.4
261.4	538.7
261.6	468.3
261.8	415.9
262.0	415.4
262.2	463.9
262.4	561.2
262.6	618.5
262.8	579.5
263.0	529.6
263.2	510.7
263.4	523.6
263.6	586.7
263.8	601.6
264.0	578.9
264.2	586.5
264.4	570.2
264.6	641.8
264.8	676.4
265.0	684.2
265.2	647.1
265.4	643.8
265.6	606.4
265.8	638.8
266.0	643.5
266.2	665.6
266.4	701.3
266.6	742.8
266.8	769.6
267.0	773.0
267.2	720.4
267.4	696.3
267.6	714.7
267.8	742.6
268.0	792.7
268.2	825.4
268.4	871.0
268.6	881.8
268.8	954.4
269.0	971.8
269.2	940.9
269.4	886.8
269.6	905.4
269.8	851.6
270.0	923.6
270.2	929.1
270.4	1003
270.6	1049
270.8	1098
271.0	1098
271.2	1121
271.4	1056
271.6	1059
271.8	1020
272.0	1039
272.2	1121
272.4	1180
272.6	1175
272.8	1198
273.0	1173
273.2	1202
273.4	1242
273.6	1346
273.8	1332
274.0	1358
274.2	1284
274.4	1308
274.6	1348
274.8	1394
275.0	1399
275.2	1411
275.4	1411
275.6	1494
275.8	1516
276.0	1436
276.2	1455
276.4	1480
276.6	1514
276.8	1551
277.0	1544
277.2	1516
277.4	1532
277.6	1634
277.8	1665
278.0	1672
278.2	1680
278.4	1621
278.6	1621
278.8	1692
279.0	1782
279.2	1802
279.4	1860
279.6	1803
279.8	1806
280.0	1788
280.2	1801
280.4	1767
280.6	1810
280.8	1861
281.0	1958
281.2	1983
281.4	1919
281.6	1884
281.8	1844
282.0	1884
282.2	1933
282.4	1877
282.6	1840
282.8	1937
283.0	1999
283.2	2091
283.4	2083
283.6	2035
283.8	2024
284.0	2051
284.2	2107
284.4	2212
284.6	2174
284.8	2195
285.0	2179
285.2	2147
285.4	2188
285.6	2217
285.8	2273
286.0	2338
286.2	2335
286.4	2369
286.6	2306
286.8	2205
287.0	2263
287.2	2239
287.4	2247
287.6	2323
287.8	2279
288.0	2281
288.2	2375
288.4	2385
288.6	2435
288.8	2484
289.0	2486
289.2	2459
289.4	2401
289.6	2282
289.8	2210
290.0	2219
290.2	2255
290.4	2261
290.6	2298
290.8	2262
291.0	2266
291.2	2314
291.4	2277
291.6	2259
291.8	2265
292.0	2226
292.2	2276
292.4	2264
292.6	2202
292.8	2273
293.0	2297
293.2	2275
293.4	2246
293.6	2101
293.8	1982
294.0	2004
294.2	2044
294.4	2045
294.6	2074
294.8	2033
295.0	2021
295.2	2019
295.4	2014
295.6	1984
295.8	1941
296.0	1863
296.2	1809
296.4	1847
296.6	1842
296.8	1833
297.0	1805
297.2	1793
297.4	1723
297.6	1678
297.8	1576
298.0	1525
298.2	1537
298.4	1533
298.6	1502
298.8	1513
299.0	1509
299.2	1460
299.4	1454
299.6	1405
299.8	1337
300.0	1429
300.2	1416
300.4	1360
300.6	1341
300.8	1306
301.0	1234
301.2	1255
301.4	1218
301.6	1200
301.8	1193
302.0	1183
302.2	1115
302.4	1074
302.6	1036
302.8	1043
303.0	1071
303.2	1126
303.4	1103
303.6	1036
303.8	999.6
304.0	966.8
304.2	930.9
304.4	975.6
304.6	963.3
304.8	921.7
305.0	918.4
305.2	870.0
305.4	838.6
305.6	879.1
305.8	877.8
306.0	870.5
306.2	877.9
306.4	868.4
306.6	860.5
306.8	871.9
307.0	867.1
307.2	827.5
307.4	779.6
307.6	759.2
307.8	727.2
308.0	705.9
308.2	690.5
308.4	681.0
308.6	651.4
308.8	654.8
309.0	669.6
309.2	688.3
309.4	693.2
309.6	714.6
309.8	693.6
310.0	667.9
310.2	659.8
310.4	654.0
310.6	628.8
310.8	608.9
311.0	576.2
311.2	594.6
311.4	604.8
311.6	600.4
311.8	584.4
312.0	569.9
312.2	549.9
312.4	565.6
312.6	547.6
312.8	543.9
313.0	537.4
313.2	542.0
313.4	541.2
313.6	551.4
313.8	547.1
314.0	553.1
314.2	539.1
314.4	542.5
314.6	537.8
314.8	519.1
315.0	510.7
315.2	494.9
315.4	494.3
315.6	493.0
315.8	498.6
316.0	494.2
316.2	513.7
316.4	517.6
316.6	539.1
316.8	510.7
317.0	482.8
317.2	470.0
317.4	478.4
317.6	481.2
317.8	506.0
318.0	502.7
318.2	491.3
318.4	498.9
318.6	502.6
318.8	504.8
319.0	502.0
319.2	503.6
319.4	506.0
319.6	499.2
319.8	491.1
320.0	481.3
320.2	474.7
320.4	464.8
320.6	466.8
320.8	448.7
321.0	450.0
321.2	459.8
321.4	474.3
321.6	480.5
321.8	492.1
322.0	480.7
322.2	461.7
322.4	459.8
322.6	443.6
322.8	462.7
323.0	480.4
323.2	471.3
323.4	463.9
323.6	470.1
323.8	469.1
324.0	487.2
324.2	480.6
324.4	458.9
324.6	459.4
324.8	456.3
325.0	476.6
325.2	481.7
325.4	482.1
325.6	482.4
325.8	492.2
326.0	481.0
326.2	488.9
326.4	483.8
326.6	469.0
326.8	477.1
327.0	492.4
327.2	491.7
327.4	511.1
327.6	506.0
327.8	475.3
328.0	481.1
328.2	472.3
328.4	445.1
328.6	456.4
328.8	468.5
329.0	477.0
329.2	496.7
329.4	502.4
329.6	470.3
329.8	453.2
330.0	476.5
330.2	485.7
330.4	497.1
330.6	514.3
330.8	509.5
331.0	480.8
331.2	486.0
331.4	480.0
331.6	473.8
331.8	485.3
332.0	488.4
332.2	464.2
332.4	464.7
332.6	463.7
332.8	447.2
333.0	466.2
333.2	472.0
333.4	462.0
333.6	468.7
333.8	465.0
334.0	449.9
334.2	464.7
334.4	460.6
334.6	457.4
334.8	464.5
335.0	466.8
335.2	467.9
335.4	469.0
335.6	456.5
335.8	448.1
336.0	457.8
336.2	486.5
336.4	492.2
336.6	498.1
336.8	483.1
337.0	470.0
337.2	458.8
337.4	472.8
337.6	468.6
337.8	493.0
338.0	489.0
338.2	495.7
338.4	484.1
338.6	471.9
338.8	470.7
339.0	476.5
339.2	470.0
339.4	477.3
339.6	485.1
339.8	472.2
340.0	479.5
340.2	484.8
340.4	490.6
340.6	508.7
340.8	510.2
341.0	484.3
341.2	465.6
341.4	474.3
341.6	478.1
341.8	488.3
342.0	497.3
342.2	501.3
342.4	509.1
342.6	524.0
342.8	499.2
343.0	487.6
343.2	478.8
343.4	480.1
343.6	502.2
343.8	503.2
344.0	492.9
344.2	501.1
344.4	486.9
344.6	476.7
344.8	474.9
345.0	462.0
345.2	454.5
345.4	456.0
345.6	473.5
345.8	485.9
346.0	493.3
346.2	506.2
346.4	504.2
346.6	485.8
346.8	504.4
347.0	499.0
347.2	488.8
347.4	490.9
347.6	489.7
347.8	486.3
348.0	505.0
348.2	481.5
348.4	474.7
348.6	468.1
348.8	468.5
349.0	500.8
349.2	498.4
349.4	483.5
349.6	493.4
349.8	496.5
350.0	497.2
350.2	517.0
350.4	510.6
350.6	526.6
350.8	546.0
351.0	542.7
351.2	536.3
351.4	529.7
351.6	526.7
351.8	521.8
352.0	524.8
352.2	514.6
352.4	514.8
352.6	508.8
352.8	513.8
353.0	499.8
353.2	509.5
353.4	524.6
353.6	541.3
353.8	533.5
354.0	536.6
354.2	521.0
354.4	520.6
354.6	532.0
354.8	559.0
355.0	543.4
355.2	528.4
355.4	504.5
355.6	494.2
355.8	509.9
356.0	555.2
356.2	574.2
356.4	562.4
356.6	547.5
356.8	536.2
357.0	528.3
357.2	526.2
357.4	514.6
357.6	483.2
357.8	484.3
358.0	495.3
358.2	517.5
358.4	556.2
358.6	571.4
358.8	567.0
359.0	554.7
359.2	545.6
359.4	537.4
359.6	557.1
359.8	552.2
360.0	551.8
360.2	543.1
360.4	537.8
360.6	538.0
360.8	551.6
361.0	557.2
361.2	581.7
361.4	569.6
361.6	563.4
361.8	541.6
362.0	522.8
362.2	535.5
362.4	562.9
362.6	580.0
362.8	598.5
363.0	583.4
363.2	550.1
363.4	544.3
363.6	545.4
363.8	573.4
364.0	579.8
364.2	588.9
364.4	567.6
364.6	570.8
364.8	580.3
365.0	576.6
365.2	581.2
365.4	594.1
365.6	587.1
365.8	605.3
366.0	611.5
366.2	595.4
366.4	581.4
366.6	583.1
366.8	583.3
367.0	597.1
367.2	602.2
367.4	602.8
367.6	576.5
367.8	575.7
368.0	575.2
368.2	585.0
368.4	592.0
368.6	582.3
368.8	553.5
369.0	540.3
369.2	557.1
369.4	581.7
369.6	606.6
369.8	610.5
370.0	580.0
370.2	543.5
370.4	548.4
370.6	547.7
370.8	545.3
371.0	557.4
371.2	555.2
371.4	554.0
371.6	570.8
371.8	572.8
372.0	556.3
372.2	547.5
372.4	525.7
372.6	536.0
372.8	556.2
373.0	574.1
373.2	571.2
373.4	549.1
373.6	538.7
373.8	542.6
374.0	538.9
374.2	534.6
374.4	522.5
374.6	529.9
374.8	546.0
375.0	549.9
375.2	555.9
375.4	555.3
375.6	544.4
375.8	540.5
376.0	543.3
376.2	546.7
376.4	555.5
376.6	556.8
376.8	536.6
377.0	502.9
377.2	499.0
377.4	517.8
377.6	542.5
377.8	551.7
378.0	553.5
378.2	537.9
378.4	511.2
378.6	524.9
378.8	537.3
379.0	539.1
379.2	531.2
379.4	518.1
379.6	505.5
379.8	507.6
380.0	498.0
380.2	516.0
380.4	513.6
380.6	509.3
380.8	508.6
381.0	492.7
381.2	480.3
381.4	493.0
381.6	499.8
381.8	499.9
382.0	502.0
382.2	498.7
382.4	506.0
382.6	501.4
382.8	505.5
383.0	499.7
383.2	508.9
383.4	495.1
383.6	486.1
383.8	446.3
384.0	436.5
384.2	441.4
384.4	465.7
384.6	473.9
384.8	499.7
385.0	487.6
385.2	469.9
385.4	466.9
385.6	468.9
385.8	469.4
386.0	493.0
386.2	505.2
386.4	484.3
386.6	462.4
386.8	442.3
387.0	429.8
387.2	426.2
387.4	445.4
387.6	454.2
387.8	438.5
388.0	438.4
388.2	431.6
388.4	430.9
388.6	451.4
388.8	459.9
389.0	457.7
389.2	468.2
389.4	454.7
389.6	455.1
389.8	447.4
390.0	443.7
390.2	438.9
390.4	453.1
390.6	453.6
390.8	457.3
391.0	452.9
391.2	450.7
391.4	436.2
391.6	439.6
391.8	428.5
392.0	429.5
392.2	436.7
392.4	446.5
392.6	447.6
392.8	457.0
393.0	454.4
393.2	449.4
393.4	445.6
393.6	443.8
393.8	422.3
394.0	425.0
394.2	438.9
394.4	454.7
394.6	478.7
394.8	500.6
395.0	489.9
395.2	479.3
395.4	463.3
395.6	450.0
395.8	446.8
396.0	465.7
396.2	455.3
396.4	454.7
396.6	458.3
396.8	475.0
397.0	494.8
397.2	504.2
397.4	485.8
397.6	479.8
397.8	488.5
398.0	496.9
398.2	496.5
398.4	494.3
398.6	505.2
398.8	516.2
399.0	536.1
399.2	551.6
399.4	543.7
399.6	540.7
399.8	536.0
400.0	537.7
400.2	539.7
400.4	544.9
400.6	534.8
400.8	537.3
401.0	525.3
401.2	550.9
401.4	569.8
401.6	579.2
401.8	582.5
402.0	588.1
402.2	570.8
402.4	585.7
402.6	598.9
402.8	613.1
403.0	637.1
403.2	652.1
403.4	663.5
403.6	678.7
403.8	684.8
404.0	682.3
404.2	683.7
404.4	679.4
404.6	693.0
404.8	702.7
405.0	720.8
405.2	744.2
405.4	758.7
405.6	765.7
405.8	785.8
406.0	780.4
406.2	790.3
406.4	803.2
406.6	817.2
406.8	823.2
407.0	839.8
407.2	844.7
407.4	844.9
407.6	855.3
407.8	882.3
408.0	889.9
408.2	914.0
408.4	932.3
408.6	947.9
408.8	964.3
409.0	975.7
409.2	975.6
409.4	972.1
409.6	965.5
409.8	985.4
410.0	1003
410.2	1020
410.4	1037
410.6	1051
410.8	1059
411.0	1074
411.2	1075
411.4	1072
411.6	1070
411.8	1087
412.0	1102
412.2	1128
412.4	1147
412.6	1157
412.8	1168
413.0	1171
413.2	1160
413.4	1185
413.6	1207
413.8	1210
414.0	1219
414.2	1218
414.4	1193
414.6	1220
414.8	1256
415.0	1259
415.2	1266
415.4	1293
415.6	1294
415.8	1320
416.0	1379
416.2	1402
416.4	1446
416.6	1487
416.8	1519
417.0	1551
417.2	1616
417.4	1679
417.6	1742
417.8	1813
418.0	1913
418.2	2023
418.4	2158
418.6	2308
418.8	2460
419.0	2636
419.2	2857
419.4	3084
419.6	3330
419.8	3577
420.0	3857
420.2	4097
420.4	4388
420.6	4693
420.8	5009
421.0	5326
421.2	5739
421.4	6119
421.6	6564
421.8	7052
422.0	7480
422.2	7926
422.4	8426
422.6	8965
422.8	9473
423.0	9858
423.2	9999.9
423.4	9999.9
423.6	9999.9
423.8	9999.9
424.0	9999.9
424.2	9999.9
424.4	9999.9
424.6	9999.9
424.8	9999.9
425.0	9999.9

