Sample:	'20211010A(EM)
File name:	B-NI 7 700.FDS
Run date:	'08:45:44, 06/20/2023
Operator:	Administrator
Comment:	'

Instrument
Model:	F-4700 FL Spectrophotometer
Serial number:	2019-001
ROM Version:	5J24010 00

Instrument parameters
Measurement type:	Wavelength scan
Scan mode:	Emission
Data mode:	Fluorescence
EX WL:	350.0 nm
EM  Start WL:	370.0 nm
EM  End WL:	700.0 nm
Scan speed:	1200 nm/min
Delay:	0.0 s
EX Slit:	10.0 nm
EM Slit:	10.0 nm
PMT Voltage:	300 V
Response:	0.002 s
Corrected spectra:	Off
Shutter control:	On

Processing performed
Savitsky-Golay smoothed
Smoothing order:	3
Number of points:	7
Number of times:	1

Peak integration
Integration method:	Rectangular
Sensitivity:	1
Threshold:	1.000

Peaks
No.	Start(nm)	Apex(nm)	End(nm)	Height(Data)	Valley(nm)	Valley(Data)
1	370.0	441.4	444.0	3214	444.0	3185
2	444.0	444.8	700.0	3204	700.0	2.357

Data points
nm	Data
370.0	11.56
370.2	11.92
370.4	12.26
370.6	12.56
370.8	12.75
371.0	13.05
371.2	13.29
371.4	13.58
371.6	13.99
371.8	14.43
372.0	14.78
372.2	15.14
372.4	15.43
372.6	15.75
372.8	16.06
373.0	16.51
373.2	16.97
373.4	17.42
373.6	17.91
373.8	18.36
374.0	18.88
374.2	19.35
374.4	19.74
374.6	20.21
374.8	20.71
375.0	21.25
375.2	21.92
375.4	22.57
375.6	23.22
375.8	23.91
376.0	24.46
376.2	25.10
376.4	25.67
376.6	26.43
376.8	27.22
377.0	27.91
377.2	28.45
377.4	29.23
377.6	29.94
377.8	30.81
378.0	31.69
378.2	32.56
378.4	33.44
378.6	34.39
378.8	35.18
379.0	36.06
379.2	37.11
379.4	38.37
379.6	39.64
379.8	40.86
380.0	42.01
380.2	43.20
380.4	44.34
380.6	45.63
380.8	46.85
381.0	48.14
381.2	49.70
381.4	51.36
381.6	52.99
381.8	54.70
382.0	56.10
382.2	57.54
382.4	59.11
382.6	60.90
382.8	62.74
383.0	64.64
383.2	66.49
383.4	68.26
383.6	70.21
383.8	72.31
384.0	74.59
384.2	77.13
384.4	79.65
384.6	82.00
384.8	84.41
385.0	86.76
385.2	89.29
385.4	92.09
385.6	94.76
385.8	97.55
386.0	100.4
386.2	103.4
386.4	106.6
386.6	110.0
386.8	112.9
387.0	116.3
387.2	119.9
387.4	123.5
387.6	127.3
387.8	130.9
388.0	134.3
388.2	138.2
388.4	141.9
388.6	145.9
388.8	150.3
389.0	154.7
389.2	159.3
389.4	164.1
389.6	168.7
389.8	173.7
390.0	178.7
390.2	183.9
390.4	188.9
390.6	194.4
390.8	200.4
391.0	206.6
391.2	212.3
391.4	218.1
391.6	223.3
391.8	228.9
392.0	235.3
392.2	241.8
392.4	248.3
392.6	255.3
392.8	262.3
393.0	268.9
393.2	275.9
393.4	282.5
393.6	289.7
393.8	297.9
394.0	306.1
394.2	314.7
394.4	323.1
394.6	331.5
394.8	340.1
395.0	348.8
395.2	357.0
395.4	366.0
395.6	375.2
395.8	385.3
396.0	395.7
396.2	405.3
396.4	414.6
396.6	424.5
396.8	434.1
397.0	444.8
397.2	455.3
397.4	465.9
397.6	476.6
397.8	487.9
398.0	498.7
398.2	510.1
398.4	520.9
398.6	532.6
398.8	544.9
399.0	558.5
399.2	570.8
399.4	583.9
399.6	595.6
399.8	607.9
400.0	621.7
400.2	636.4
400.4	649.9
400.6	664.5
400.8	678.7
401.0	691.7
401.2	705.7
401.4	720.2
401.6	733.8
401.8	748.3
402.0	763.5
402.2	777.0
402.4	791.9
402.6	806.7
402.8	820.2
403.0	835.2
403.2	850.8
403.4	865.9
403.6	882.3
403.8	899.5
404.0	916.0
404.2	932.1
404.4	947.5
404.6	961.8
404.8	976.6
405.0	994.2
405.2	1013
405.4	1030
405.6	1049
405.8	1066
406.0	1080
406.2	1097
406.4	1114
406.6	1131
406.8	1149
407.0	1166
407.2	1181
407.4	1198
407.6	1215
407.8	1234
408.0	1253
408.2	1271
408.4	1288
408.6	1304
408.8	1323
409.0	1340
409.2	1358
409.4	1377
409.6	1397
409.8	1417
410.0	1435
410.2	1453
410.4	1469
410.6	1486
410.8	1503
411.0	1523
411.2	1540
411.4	1558
411.6	1575
411.8	1593
412.0	1610
412.2	1629
412.4	1650
412.6	1671
412.8	1690
413.0	1706
413.2	1719
413.4	1734
413.6	1753
413.8	1773
414.0	1788
414.2	1806
414.4	1824
414.6	1843
414.8	1861
415.0	1879
415.2	1895
415.4	1914
415.6	1933
415.8	1950
416.0	1964
416.2	1980
416.4	1998
416.6	2016
416.8	2034
417.0	2049
417.2	2063
417.4	2080
417.6	2096
417.8	2109
418.0	2124
418.2	2142
418.4	2160
418.6	2179
418.8	2193
419.0	2206
419.2	2221
419.4	2241
419.6	2260
419.8	2275
420.0	2287
420.2	2299
420.4	2311
420.6	2327
420.8	2345
421.0	2365
421.2	2387
421.4	2407
421.6	2421
421.8	2432
422.0	2438
422.2	2449
422.4	2461
422.6	2474
422.8	2487
423.0	2501
423.2	2513
423.4	2528
423.6	2543
423.8	2557
424.0	2571
424.2	2582
424.4	2594
424.6	2604
424.8	2617
425.0	2630
425.2	2646
425.4	2661
425.6	2679
425.8	2693
426.0	2707
426.2	2713
426.4	2719
426.6	2727
426.8	2740
427.0	2756
427.2	2772
427.4	2783
427.6	2789
427.8	2795
428.0	2804
428.2	2817
428.4	2827
428.6	2838
428.8	2848
429.0	2860
429.2	2873
429.4	2883
429.6	2889
429.8	2897
430.0	2902
430.2	2911
430.4	2921
430.6	2937
430.8	2950
431.0	2960
431.2	2966
431.4	2971
431.6	2979
431.8	2991
432.0	2998
432.2	3005
432.4	3011
432.6	3017
432.8	3025
433.0	3033
433.2	3042
433.4	3048
433.6	3054
433.8	3058
434.0	3064
434.2	3070
434.4	3076
434.6	3082
434.8	3091
435.0	3096
435.2	3102
435.4	3104
435.6	3109
435.8	3118
436.0	3125
436.2	3128
436.4	3127
436.6	3131
436.8	3137
437.0	3147
437.2	3150
437.4	3149
437.6	3147
437.8	3150
438.0	3156
438.2	3168
438.4	3175
438.6	3181
438.8	3183
439.0	3182
439.2	3180
439.4	3180
439.6	3180
439.8	3184
440.0	3188
440.2	3193
440.4	3192
440.6	3193
440.8	3196
441.0	3199
441.2	3207
441.4	3214
441.6	3212
441.8	3212
442.0	3208
442.2	3205
442.4	3207
442.6	3209
442.8	3208
443.0	3206
443.2	3202
443.4	3199
443.6	3192
443.8	3188
444.0	3185
444.2	3186
444.4	3194
444.6	3200
444.8	3204
445.0	3200
445.2	3190
445.4	3181
445.6	3175
445.8	3176
446.0	3181
446.2	3185
446.4	3182
446.6	3179
446.8	3176
447.0	3175
447.2	3173
447.4	3172
447.6	3168
447.8	3169
448.0	3163
448.2	3158
448.4	3155
448.6	3150
448.8	3150
449.0	3152
449.2	3148
449.4	3142
449.6	3138
449.8	3135
450.0	3130
450.2	3127
450.4	3124
450.6	3113
450.8	3112
451.0	3111
451.2	3106
451.4	3101
451.6	3095
451.8	3085
452.0	3081
452.2	3079
452.4	3072
452.6	3068
452.8	3065
453.0	3060
453.2	3054
453.4	3053
453.6	3047
453.8	3043
454.0	3037
454.2	3030
454.4	3020
454.6	3014
454.8	3009
455.0	3005
455.2	2998
455.4	2994
455.6	2985
455.8	2980
456.0	2976
456.2	2972
456.4	2969
456.6	2966
456.8	2961
457.0	2956
457.2	2949
457.4	2943
457.6	2935
457.8	2929
458.0	2924
458.2	2916
458.4	2907
458.6	2900
458.8	2891
459.0	2887
459.2	2882
459.4	2876
459.6	2867
459.8	2858
460.0	2853
460.2	2847
460.4	2840
460.6	2832
460.8	2820
461.0	2813
461.2	2806
461.4	2798
461.6	2792
461.8	2784
462.0	2777
462.2	2771
462.4	2765
462.6	2758
462.8	2749
463.0	2739
463.2	2732
463.4	2721
463.6	2715
463.8	2707
464.0	2698
464.2	2690
464.4	2683
464.6	2674
464.8	2667
465.0	2659
465.2	2652
465.4	2643
465.6	2634
465.8	2628
466.0	2622
466.2	2615
466.4	2606
466.6	2597
466.8	2585
467.0	2577
467.2	2574
467.4	2567
467.6	2558
467.8	2553
468.0	2540
468.2	2529
468.4	2524
468.6	2513
468.8	2502
469.0	2493
469.2	2485
469.4	2476
469.6	2470
469.8	2460
470.0	2451
470.2	2443
470.4	2438
470.6	2429
470.8	2420
471.0	2411
471.2	2401
471.4	2395
471.6	2387
471.8	2377
472.0	2364
472.2	2354
472.4	2346
472.6	2342
472.8	2336
473.0	2327
473.2	2317
473.4	2312
473.6	2307
473.8	2297
474.0	2284
474.2	2270
474.4	2258
474.6	2251
474.8	2243
475.0	2237
475.2	2232
475.4	2226
475.6	2217
475.8	2207
476.0	2196
476.2	2190
476.4	2183
476.6	2174
476.8	2164
477.0	2155
477.2	2149
477.4	2143
477.6	2136
477.8	2127
478.0	2118
478.2	2107
478.4	2098
478.6	2091
478.8	2084
479.0	2074
479.2	2067
479.4	2057
479.6	2050
479.8	2043
480.0	2037
480.2	2032
480.4	2025
480.6	2016
480.8	2008
481.0	1996
481.2	1987
481.4	1981
481.6	1970
481.8	1961
482.0	1953
482.2	1944
482.4	1935
482.6	1929
482.8	1922
483.0	1916
483.2	1908
483.4	1901
483.6	1894
483.8	1883
484.0	1873
484.2	1867
484.4	1860
484.6	1853
484.8	1848
485.0	1839
485.2	1829
485.4	1821
485.6	1811
485.8	1805
486.0	1799
486.2	1791
486.4	1782
486.6	1774
486.8	1768
487.0	1764
487.2	1756
487.4	1748
487.6	1740
487.8	1733
488.0	1726
488.2	1717
488.4	1708
488.6	1701
488.8	1694
489.0	1683
489.2	1676
489.4	1670
489.6	1665
489.8	1660
490.0	1654
490.2	1644
490.4	1636
490.6	1630
490.8	1621
491.0	1612
491.2	1606
491.4	1601
491.6	1592
491.8	1584
492.0	1575
492.2	1567
492.4	1561
492.6	1556
492.8	1548
493.0	1540
493.2	1533
493.4	1527
493.6	1519
493.8	1510
494.0	1502
494.2	1495
494.4	1488
494.6	1482
494.8	1475
495.0	1470
495.2	1462
495.4	1456
495.6	1449
495.8	1442
496.0	1435
496.2	1426
496.4	1417
496.6	1407
496.8	1400
497.0	1392
497.2	1386
497.4	1379
497.6	1372
497.8	1366
498.0	1360
498.2	1353
498.4	1348
498.6	1340
498.8	1332
499.0	1325
499.2	1317
499.4	1311
499.6	1307
499.8	1301
500.0	1292
500.2	1283
500.4	1274
500.6	1268
500.8	1262
501.0	1256
501.2	1248
501.4	1242
501.6	1235
501.8	1229
502.0	1222
502.2	1215
502.4	1210
502.6	1203
502.8	1198
503.0	1192
503.2	1185
503.4	1177
503.6	1170
503.8	1164
504.0	1159
504.2	1153
504.4	1146
504.6	1137
504.8	1130
505.0	1124
505.2	1119
505.4	1115
505.6	1108
505.8	1101
506.0	1094
506.2	1088
506.4	1085
506.6	1079
506.8	1072
507.0	1064
507.2	1056
507.4	1049
507.6	1046
507.8	1042
508.0	1036
508.2	1030
508.4	1023
508.6	1015
508.8	1011
509.0	1006
509.2	1001
509.4	994.5
509.6	987.7
509.8	981.2
510.0	975.4
510.2	969.1
510.4	963.9
510.6	957.7
510.8	952.9
511.0	947.9
511.2	942.1
511.4	936.5
511.6	930.6
511.8	924.0
512.0	918.4
512.2	913.7
512.4	909.7
512.6	907.1
512.8	901.5
513.0	895.8
513.2	889.8
513.4	884.9
513.6	880.4
513.8	875.8
514.0	868.7
514.2	862.4
514.4	857.1
514.6	853.5
514.8	850.6
515.0	847.1
515.2	841.4
515.4	833.6
515.6	827.8
515.8	822.8
516.0	820.6
516.2	817.1
516.4	811.3
516.6	804.4
516.8	798.6
517.0	793.6
517.2	791.0
517.4	785.8
517.6	780.7
517.8	775.0
518.0	770.2
518.2	766.6
518.4	762.7
518.6	757.9
518.8	753.9
519.0	749.6
519.2	745.6
519.4	741.2
519.6	735.8
519.8	730.8
520.0	726.1
520.2	721.2
520.4	716.0
520.6	710.3
520.8	705.5
521.0	702.6
521.2	699.5
521.4	695.1
521.6	691.2
521.8	686.6
522.0	682.5
522.2	678.5
522.4	673.8
522.6	669.3
522.8	665.5
523.0	661.7
523.2	658.8
523.4	655.2
523.6	650.6
523.8	645.8
524.0	641.5
524.2	636.8
524.4	632.8
524.6	629.1
524.8	625.5
525.0	621.5
525.2	618.4
525.4	614.2
525.6	610.3
525.8	607.0
526.0	603.6
526.2	599.9
526.4	596.3
526.6	592.1
526.8	588.5
527.0	585.1
527.2	581.3
527.4	577.3
527.6	574.1
527.8	570.2
528.0	566.8
528.2	564.0
528.4	561.2
528.6	557.6
528.8	553.6
529.0	549.5
529.2	545.6
529.4	541.4
529.6	538.6
529.8	535.9
530.0	532.0
530.2	528.5
530.4	524.6
530.6	521.2
530.8	519.2
531.0	516.2
531.2	513.2
531.4	510.4
531.6	507.0
531.8	504.4
532.0	501.5
532.2	497.6
532.4	494.2
532.6	491.5
532.8	487.3
533.0	483.2
533.2	479.9
533.4	476.8
533.6	474.4
533.8	472.8
534.0	469.7
534.2	466.1
534.4	461.7
534.6	458.3
534.8	455.4
535.0	452.6
535.2	450.8
535.4	448.9
535.6	446.2
535.8	443.5
536.0	440.1
536.2	436.6
536.4	433.5
536.6	430.2
536.8	427.7
537.0	425.2
537.2	423.3
537.4	421.4
537.6	418.6
537.8	415.2
538.0	412.1
538.2	408.8
538.4	406.3
538.6	403.4
538.8	401.4
539.0	399.3
539.2	396.8
539.4	394.2
539.6	392.0
539.8	389.0
540.0	386.9
540.2	384.6
540.4	382.5
540.6	379.8
540.8	377.4
541.0	374.3
541.2	371.1
541.4	368.4
541.6	366.3
541.8	364.2
542.0	361.7
542.2	358.5
542.4	356.1
542.6	353.7
542.8	352.1
543.0	350.6
543.2	348.2
543.4	345.7
543.6	343.1
543.8	340.3
544.0	338.2
544.2	336.4
544.4	334.7
544.6	333.0
544.8	330.5
545.0	328.1
545.2	325.8
545.4	323.9
545.6	321.7
545.8	319.4
546.0	317.2
546.2	315.0
546.4	313.1
546.6	311.6
546.8	309.5
547.0	307.3
547.2	305.3
547.4	303.1
547.6	301.0
547.8	298.7
548.0	296.8
548.2	294.7
548.4	293.1
548.6	290.7
548.8	288.1
549.0	285.7
549.2	284.2
549.4	282.9
549.6	281.8
549.8	280.0
550.0	277.8
550.2	275.8
550.4	273.8
550.6	271.8
550.8	269.6
551.0	267.6
551.2	265.8
551.4	264.0
551.6	262.3
551.8	260.6
552.0	259.4
552.2	257.7
552.4	256.1
552.6	254.1
552.8	252.0
553.0	250.3
553.2	249.4
553.4	248.4
553.6	247.2
553.8	245.4
554.0	243.2
554.2	241.1
554.4	239.4
554.6	237.3
554.8	235.6
555.0	233.9
555.2	232.5
555.4	231.5
555.6	229.9
555.8	227.7
556.0	225.8
556.2	224.5
556.4	223.4
556.6	222.4
556.8	221.0
557.0	219.2
557.2	217.3
557.4	215.9
557.6	214.3
557.8	212.9
558.0	211.6
558.2	210.4
558.4	209.1
558.6	207.9
558.8	206.3
559.0	204.6
559.2	203.0
559.4	201.9
559.6	200.8
559.8	199.7
560.0	198.4
560.2	197.1
560.4	195.8
560.6	194.7
560.8	193.2
561.0	191.4
561.2	189.8
561.4	188.5
561.6	187.2
561.8	186.3
562.0	185.3
562.2	183.8
562.4	182.5
562.6	181.4
562.8	180.1
563.0	178.7
563.2	177.5
563.4	175.9
563.6	174.8
563.8	173.8
564.0	172.3
564.2	171.1
564.4	170.0
564.6	169.4
564.8	168.7
565.0	167.8
565.2	165.8
565.4	164.3
565.6	162.8
565.8	161.8
566.0	160.8
566.2	160.1
566.4	159.0
566.6	157.9
566.8	156.7
567.0	155.5
567.2	154.2
567.4	153.2
567.6	152.7
567.8	151.7
568.0	150.8
568.2	149.5
568.4	148.2
568.6	147.0
568.8	146.2
569.0	145.3
569.2	144.3
569.4	143.3
569.6	142.5
569.8	141.4
570.0	140.4
570.2	139.6
570.4	138.6
570.6	137.7
570.8	136.7
571.0	135.6
571.2	134.6
571.4	133.9
571.6	133.0
571.8	132.3
572.0	131.4
572.2	130.7
572.4	129.6
572.6	128.7
572.8	127.5
573.0	126.9
573.2	126.1
573.4	125.3
573.6	124.3
573.8	123.5
574.0	122.7
574.2	122.3
574.4	121.2
574.6	120.1
574.8	119.0
575.0	118.0
575.2	117.3
575.4	116.6
575.6	115.6
575.8	114.9
576.0	114.0
576.2	113.2
576.4	112.6
576.6	112.1
576.8	111.4
577.0	110.6
577.2	109.8
577.4	109.1
577.6	108.5
577.8	108.0
578.0	107.2
578.2	106.4
578.4	105.7
578.6	104.9
578.8	104.1
579.0	103.1
579.2	102.2
579.4	101.5
579.6	101.1
579.8	100.7
580.0	100.1
580.2	99.27
580.4	98.61
580.6	97.88
580.8	97.29
581.0	96.65
581.2	95.89
581.4	95.38
581.6	94.60
581.8	94.04
582.0	93.33
582.2	92.56
582.4	91.82
582.6	91.29
582.8	90.59
583.0	90.10
583.2	89.30
583.4	88.61
583.6	87.94
583.8	87.44
584.0	87.02
584.2	86.69
584.4	86.08
584.6	85.35
584.8	84.67
585.0	84.26
585.2	83.84
585.4	83.45
585.6	82.77
585.8	81.99
586.0	81.47
586.2	81.07
586.4	80.68
586.6	80.19
586.8	79.47
587.0	78.80
587.2	78.17
587.4	77.49
587.6	76.93
587.8	76.35
588.0	75.90
588.2	75.52
588.4	75.16
588.6	74.74
588.8	74.29
589.0	73.46
589.2	72.91
589.4	72.36
589.6	71.83
589.8	71.31
590.0	71.01
590.2	70.54
590.4	70.25
590.6	69.90
590.8	69.41
591.0	68.68
591.2	68.04
591.4	67.53
591.6	66.91
591.8	66.74
592.0	66.42
592.2	65.96
592.4	65.36
592.6	64.83
592.8	64.48
593.0	64.34
593.2	63.84
593.4	63.41
593.6	62.94
593.8	62.34
594.0	62.03
594.2	61.53
594.4	60.93
594.6	60.55
594.8	60.40
595.0	60.00
595.2	59.62
595.4	59.24
595.6	58.63
595.8	58.27
596.0	58.03
596.2	57.50
596.4	57.11
596.6	56.83
596.8	56.54
597.0	56.21
597.2	55.92
597.4	55.40
597.6	54.87
597.8	54.53
598.0	54.36
598.2	53.79
598.4	53.43
598.6	53.05
598.8	52.60
599.0	52.17
599.2	51.93
599.4	51.47
599.6	51.16
599.8	51.13
600.0	50.81
600.2	50.25
600.4	49.73
600.6	49.30
600.8	48.88
601.0	48.63
601.2	48.51
601.4	48.33
601.6	48.09
601.8	48.05
602.0	47.61
602.2	46.98
602.4	46.74
602.6	46.23
602.8	45.75
603.0	45.61
603.2	45.27
603.4	45.03
603.6	44.76
603.8	44.37
604.0	43.90
604.2	43.69
604.4	43.36
604.6	43.17
604.8	42.71
605.0	42.46
605.2	42.06
605.4	41.82
605.6	41.44
605.8	41.08
606.0	40.67
606.2	40.50
606.4	40.33
606.6	40.11
606.8	39.81
607.0	39.44
607.2	39.24
607.4	39.11
607.6	39.05
607.8	38.67
608.0	38.30
608.2	37.93
608.4	37.66
608.6	37.49
608.8	37.37
609.0	37.18
609.2	37.04
609.4	36.79
609.6	36.48
609.8	36.10
610.0	35.83
610.2	35.71
610.4	35.56
610.6	35.35
610.8	34.97
611.0	34.64
611.2	34.40
611.4	34.19
611.6	33.99
611.8	33.72
612.0	33.34
612.2	33.14
612.4	32.93
612.6	32.70
612.8	32.54
613.0	32.21
613.2	31.97
613.4	31.72
613.6	31.45
613.8	31.11
614.0	30.84
614.2	30.54
614.4	30.40
614.6	30.19
614.8	29.98
615.0	29.73
615.2	29.56
615.4	29.49
615.6	29.38
615.8	29.24
616.0	29.10
616.2	28.80
616.4	28.50
616.6	28.26
616.8	28.04
617.0	27.90
617.2	27.87
617.4	27.76
617.6	27.51
617.8	27.15
618.0	26.81
618.2	26.46
618.4	26.33
618.6	26.24
618.8	26.15
619.0	25.96
619.2	25.84
619.4	25.64
619.6	25.52
619.8	25.32
620.0	25.07
620.2	24.89
620.4	24.72
620.6	24.55
620.8	24.50
621.0	24.43
621.2	24.25
621.4	24.04
621.6	23.69
621.8	23.52
622.0	23.30
622.2	23.14
622.4	23.03
622.6	22.82
622.8	22.70
623.0	22.62
623.2	22.40
623.4	22.20
623.6	22.04
623.8	21.87
624.0	21.70
624.2	21.56
624.4	21.32
624.6	21.16
624.8	21.01
625.0	20.94
625.2	20.80
625.4	20.76
625.6	20.49
625.8	20.36
626.0	20.12
626.2	19.99
626.4	19.87
626.6	19.82
626.8	19.69
627.0	19.65
627.2	19.52
627.4	19.41
627.6	19.18
627.8	19.02
628.0	18.83
628.2	18.72
628.4	18.61
628.6	18.51
628.8	18.30
629.0	18.11
629.2	17.94
629.4	17.83
629.6	17.78
629.8	17.76
630.0	17.60
630.2	17.39
630.4	17.29
630.6	17.18
630.8	17.10
631.0	16.92
631.2	16.76
631.4	16.62
631.6	16.51
631.8	16.41
632.0	16.29
632.2	16.05
632.4	16.05
632.6	15.96
632.8	15.77
633.0	15.62
633.2	15.48
633.4	15.39
633.6	15.40
633.8	15.39
634.0	15.27
634.2	15.02
634.4	14.74
634.6	14.68
634.8	14.60
635.0	14.63
635.2	14.59
635.4	14.51
635.6	14.40
635.8	14.34
636.0	14.20
636.2	14.06
636.4	13.98
636.6	13.90
636.8	13.72
637.0	13.61
637.2	13.52
637.4	13.49
637.6	13.44
637.8	13.30
638.0	13.02
638.2	12.92
638.4	12.86
638.6	12.87
638.8	12.75
639.0	12.74
639.2	12.73
639.4	12.67
639.6	12.59
639.8	12.45
640.0	12.22
640.2	12.09
640.4	12.09
640.6	11.92
640.8	11.80
641.0	11.75
641.2	11.66
641.4	11.66
641.6	11.68
641.8	11.60
642.0	11.46
642.2	11.37
642.4	11.25
642.6	11.21
642.8	11.14
643.0	11.10
643.2	10.92
643.4	10.81
643.6	10.70
643.8	10.62
644.0	10.64
644.2	10.60
644.4	10.47
644.6	10.42
644.8	10.28
645.0	10.27
645.2	10.25
645.4	10.13
645.6	10.06
645.8	9.979
646.0	9.843
646.2	9.865
646.4	9.853
646.6	9.799
646.8	9.708
647.0	9.642
647.2	9.485
647.4	9.362
647.6	9.329
647.8	9.280
648.0	9.166
648.2	9.165
648.4	9.088
648.6	8.981
648.8	8.904
649.0	8.868
649.2	8.735
649.4	8.736
649.6	8.771
649.8	8.709
650.0	8.551
650.2	8.399
650.4	8.236
650.6	8.193
650.8	8.260
651.0	8.251
651.2	8.166
651.4	8.130
651.6	8.081
651.8	8.065
652.0	8.035
652.2	7.948
652.4	7.822
652.6	7.775
652.8	7.678
653.0	7.714
653.2	7.632
653.4	7.593
653.6	7.543
653.8	7.458
654.0	7.389
654.2	7.420
654.4	7.373
654.6	7.334
654.8	7.247
655.0	7.189
655.2	7.154
655.4	7.174
655.6	7.136
655.8	7.076
656.0	6.961
656.2	6.939
656.4	6.912
656.6	6.897
656.8	6.837
657.0	6.837
657.2	6.798
657.4	6.729
657.6	6.628
657.8	6.542
658.0	6.440
658.2	6.379
658.4	6.294
658.6	6.232
658.8	6.227
659.0	6.269
659.2	6.270
659.4	6.234
659.6	6.185
659.8	6.136
660.0	6.099
660.2	6.057
660.4	6.022
660.6	6.003
660.8	5.997
661.0	5.932
661.2	5.781
661.4	5.703
661.6	5.610
661.8	5.594
662.0	5.615
662.2	5.672
662.4	5.628
662.6	5.638
662.8	5.536
663.0	5.463
663.2	5.427
663.4	5.421
663.6	5.371
663.8	5.339
664.0	5.274
664.2	5.241
664.4	5.214
664.6	5.198
664.8	5.161
665.0	5.105
665.2	5.066
665.4	5.105
665.6	5.084
665.8	5.067
666.0	5.052
666.2	4.965
666.4	4.877
666.6	4.860
666.8	4.841
667.0	4.829
667.2	4.866
667.4	4.766
667.6	4.669
667.8	4.632
668.0	4.634
668.2	4.620
668.4	4.660
668.6	4.634
668.8	4.588
669.0	4.540
669.2	4.476
669.4	4.419
669.6	4.441
669.8	4.517
670.0	4.495
670.2	4.448
670.4	4.350
670.6	4.273
670.8	4.237
671.0	4.225
671.2	4.176
671.4	4.189
671.6	4.155
671.8	4.137
672.0	4.122
672.2	4.065
672.4	4.055
672.6	4.049
672.8	4.016
673.0	3.976
673.2	3.917
673.4	3.858
673.6	3.841
673.8	3.845
674.0	3.877
674.2	3.880
674.4	3.864
674.6	3.803
674.8	3.761
675.0	3.765
675.2	3.786
675.4	3.711
675.6	3.673
675.8	3.601
676.0	3.598
676.2	3.606
676.4	3.653
676.6	3.566
676.8	3.497
677.0	3.447
677.2	3.427
677.4	3.401
677.6	3.424
677.8	3.391
678.0	3.376
678.2	3.355
678.4	3.372
678.6	3.365
678.8	3.338
679.0	3.284
679.2	3.257
679.4	3.170
679.6	3.182
679.8	3.193
680.0	3.183
680.2	3.176
680.4	3.179
680.6	3.164
680.8	3.177
681.0	3.167
681.2	3.094
681.4	3.044
681.6	2.967
681.8	2.987
682.0	2.960
682.2	2.990
682.4	2.979
682.6	3.004
682.8	2.982
683.0	3.027
683.2	2.973
683.4	2.951
683.6	2.912
683.8	2.920
684.0	2.900
684.2	2.898
684.4	2.831
684.6	2.815
684.8	2.775
685.0	2.796
685.2	2.797
685.4	2.842
685.6	2.818
685.8	2.840
686.0	2.780
686.2	2.778
686.4	2.751
686.6	2.775
686.8	2.763
687.0	2.787
687.2	2.765
687.4	2.739
687.6	2.683
687.8	2.648
688.0	2.660
688.2	2.666
688.4	2.654
688.6	2.603
688.8	2.583
689.0	2.582
689.2	2.596
689.4	2.578
689.6	2.576
689.8	2.567
690.0	2.596
690.2	2.573
690.4	2.555
690.6	2.569
690.8	2.555
691.0	2.531
691.2	2.516
691.4	2.435
691.6	2.458
691.8	2.486
692.0	2.473
692.2	2.435
692.4	2.425
692.6	2.405
692.8	2.464
693.0	2.473
693.2	2.464
693.4	2.426
693.6	2.406
693.8	2.410
694.0	2.407
694.2	2.393
694.4	2.409
694.6	2.396
694.8	2.393
695.0	2.405
695.2	2.393
695.4	2.387
695.6	2.405
695.8	2.353
696.0	2.335
696.2	2.321
696.4	2.335
696.6	2.390
696.8	2.421
697.0	2.379
697.2	2.355
697.4	2.296
697.6	2.313
697.8	2.332
698.0	2.332
698.2	2.275
698.4	2.285
698.6	2.258
698.8	2.306
699.0	2.304
699.2	2.298
699.4	2.254
699.6	2.260
699.8	2.294
700.0	2.357

