Sample:	'20211010A(EM)
File name:	B-NI 10.FDS
Run date:	'08:56:20, 06/20/2023
Operator:	Administrator
Comment:	'

Instrument
Model:	F-4700 FL Spectrophotometer
Serial number:	2019-001
ROM Version:	5J24010 00

Instrument parameters
Measurement type:	Wavelength scan
Scan mode:	Emission
Data mode:	Fluorescence
EX WL:	350.0 nm
EM  Start WL:	370.0 nm
EM  End WL:	700.0 nm
Scan speed:	1200 nm/min
Delay:	0.0 s
EX Slit:	10.0 nm
EM Slit:	10.0 nm
PMT Voltage:	345 V
Response:	0.002 s
Corrected spectra:	Off
Shutter control:	On

Processing performed
Savitsky-Golay smoothed
Smoothing order:	3
Number of points:	7
Number of times:	1

Peak integration
Integration method:	Rectangular
Sensitivity:	1
Threshold:	1.000

Peaks
No.	Start(nm)	Apex(nm)	End(nm)	Height(Data)	Valley(nm)	Valley(Data)
1	370.0	458.8	459.6	1773	459.6	1768
2	459.6	460.4	700.0	1772	700.0	2.298

Data points
nm	Data
370.0	1.734
370.2	1.938
370.4	1.964
370.6	1.896
370.8	1.868
371.0	1.873
371.2	1.905
371.4	1.977
371.6	1.968
371.8	1.944
372.0	1.973
372.2	2.020
372.4	2.045
372.6	2.127
372.8	2.167
373.0	2.156
373.2	2.151
373.4	2.173
373.6	2.165
373.8	2.213
374.0	2.228
374.2	2.225
374.4	2.195
374.6	2.216
374.8	2.319
375.0	2.405
375.2	2.464
375.4	2.489
375.6	2.495
375.8	2.523
376.0	2.631
376.2	2.667
376.4	2.677
376.6	2.637
376.8	2.657
377.0	2.638
377.2	2.763
377.4	2.837
377.6	2.887
377.8	2.905
378.0	2.940
378.2	2.879
378.4	2.895
378.6	2.885
378.8	2.892
379.0	2.976
379.2	3.084
379.4	3.244
379.6	3.282
379.8	3.303
380.0	3.271
380.2	3.311
380.4	3.418
380.6	3.579
380.8	3.549
381.0	3.601
381.2	3.559
381.4	3.655
381.6	3.875
381.8	4.004
382.0	3.981
382.2	3.971
382.4	3.898
382.6	3.930
382.8	4.084
383.0	4.205
383.2	4.260
383.4	4.334
383.6	4.416
383.8	4.551
384.0	4.681
384.2	4.847
384.4	4.896
384.6	5.021
384.8	5.045
385.0	5.125
385.2	5.177
385.4	5.302
385.6	5.418
385.8	5.513
386.0	5.573
386.2	5.717
386.4	5.878
386.6	6.102
386.8	6.262
387.0	6.296
387.2	6.348
387.4	6.495
387.6	6.631
387.8	6.820
388.0	6.895
388.2	7.051
388.4	7.114
388.6	7.348
388.8	7.588
389.0	7.782
389.2	8.007
389.4	8.215
389.6	8.388
389.8	8.671
390.0	8.863
390.2	9.016
390.4	9.218
390.6	9.401
390.8	9.643
391.0	9.974
391.2	10.16
391.4	10.41
391.6	10.71
391.8	11.00
392.0	11.18
392.2	11.47
392.4	11.71
392.6	12.12
392.8	12.60
393.0	13.05
393.2	13.29
393.4	13.62
393.6	13.85
393.8	14.23
394.0	14.74
394.2	15.25
394.4	15.68
394.6	16.31
394.8	16.62
395.0	17.04
395.2	17.63
395.4	18.10
395.6	18.68
395.8	19.35
396.0	19.84
396.2	20.47
396.4	21.22
396.6	21.61
396.8	22.14
397.0	22.85
397.2	23.65
397.4	24.71
397.6	25.89
397.8	26.54
398.0	27.12
398.2	27.83
398.4	28.58
398.6	29.57
398.8	30.76
399.0	31.90
399.2	32.88
399.4	34.04
399.6	34.88
399.8	35.91
400.0	37.15
400.2	38.60
400.4	39.81
400.6	41.29
400.8	42.18
401.0	43.81
401.2	45.29
401.4	47.01
401.6	48.43
401.8	50.23
402.0	51.74
402.2	53.79
402.4	55.27
402.6	56.98
402.8	58.56
403.0	60.81
403.2	62.85
403.4	65.27
403.6	66.98
403.8	69.00
404.0	70.88
404.2	73.10
404.4	75.25
404.6	77.88
404.8	80.19
405.0	83.23
405.2	86.35
405.4	89.31
405.6	91.75
405.8	94.26
406.0	96.93
406.2	100.1
406.4	103.8
406.6	107.3
406.8	110.6
407.0	113.8
407.2	117.0
407.4	120.3
407.6	123.7
407.8	126.9
408.0	130.7
408.2	134.8
408.4	139.0
408.6	143.8
408.8	148.0
409.0	152.2
409.2	156.2
409.4	161.3
409.6	166.1
409.8	171.3
410.0	175.9
410.2	180.3
410.4	184.3
410.6	188.7
410.8	194.0
411.0	200.1
411.2	205.6
411.4	211.5
411.6	216.9
411.8	221.5
412.0	227.1
412.2	233.3
412.4	238.2
412.6	244.2
412.8	250.3
413.0	256.7
413.2	263.2
413.4	269.8
413.6	275.7
413.8	282.5
414.0	290.1
414.2	298.1
414.4	304.8
414.6	311.6
414.8	318.9
415.0	326.7
415.2	334.8
415.4	342.4
415.6	350.0
415.8	356.6
416.0	363.9
416.2	372.4
416.4	380.0
416.6	388.4
416.8	397.4
417.0	405.1
417.2	413.3
417.4	422.2
417.6	429.6
417.8	438.7
418.0	447.0
418.2	455.6
418.4	463.9
418.6	472.5
418.8	480.7
419.0	490.3
419.2	499.8
419.4	509.7
419.6	518.7
419.8	529.1
420.0	538.6
420.2	548.8
420.4	559.6
420.6	569.1
420.8	578.2
421.0	586.9
421.2	595.9
421.4	605.7
421.6	614.7
421.8	624.4
422.0	633.7
422.2	643.7
422.4	654.6
422.6	666.4
422.8	674.6
423.0	685.6
423.2	694.1
423.4	704.6
423.6	713.4
423.8	724.7
424.0	734.2
424.2	745.7
424.4	756.7
424.6	767.9
424.8	776.8
425.0	786.7
425.2	796.8
425.4	807.3
425.6	819.0
425.8	832.4
426.0	843.7
426.2	853.7
426.4	862.3
426.6	870.6
426.8	880.3
427.0	892.2
427.2	902.4
427.4	913.5
427.6	923.0
427.8	932.3
428.0	942.6
428.2	953.5
428.4	962.5
428.6	973.5
428.8	983.8
429.0	993.2
429.2	1004
429.4	1017
429.6	1027
429.8	1037
430.0	1047
430.2	1055
430.4	1065
430.6	1074
430.8	1085
431.0	1098
431.2	1111
431.4	1122
431.6	1130
431.8	1134
432.0	1139
432.2	1149
432.4	1162
432.6	1176
432.8	1187
433.0	1195
433.2	1202
433.4	1209
433.6	1217
433.8	1228
434.0	1238
434.2	1248
434.4	1256
434.6	1265
434.8	1274
435.0	1285
435.2	1293
435.4	1302
435.6	1309
435.8	1320
436.0	1329
436.2	1337
436.4	1343
436.6	1349
436.8	1357
437.0	1369
437.2	1379
437.4	1388
437.6	1395
437.8	1399
438.0	1404
438.2	1412
438.4	1419
438.6	1427
438.8	1438
439.0	1446
439.2	1453
439.4	1457
439.6	1461
439.8	1466
440.0	1476
440.2	1484
440.4	1492
440.6	1497
440.8	1503
441.0	1510
441.2	1515
441.4	1519
441.6	1524
441.8	1529
442.0	1536
442.2	1542
442.4	1547
442.6	1552
442.8	1559
443.0	1563
443.2	1566
443.4	1570
443.6	1574
443.8	1577
444.0	1584
444.2	1591
444.4	1595
444.6	1602
444.8	1608
445.0	1614
445.2	1621
445.4	1625
445.6	1623
445.8	1624
446.0	1629
446.2	1635
446.4	1643
446.6	1648
446.8	1651
447.0	1654
447.2	1658
447.4	1662
447.6	1667
447.8	1668
448.0	1670
448.2	1673
448.4	1676
448.6	1683
448.8	1687
449.0	1692
449.2	1695
449.4	1695
449.6	1697
449.8	1700
450.0	1703
450.2	1710
450.4	1711
450.6	1713
450.8	1718
451.0	1721
451.2	1725
451.4	1727
451.6	1725
451.8	1724
452.0	1727
452.2	1730
452.4	1733
452.6	1733
452.8	1734
453.0	1735
453.2	1741
453.4	1747
453.6	1749
453.8	1747
454.0	1744
454.2	1745
454.4	1746
454.6	1748
454.8	1752
455.0	1754
455.2	1754
455.4	1759
455.6	1759
455.8	1759
456.0	1760
456.2	1762
456.4	1760
456.6	1764
456.8	1766
457.0	1767
457.2	1767
457.4	1768
457.6	1768
457.8	1767
458.0	1766
458.2	1765
458.4	1766
458.6	1769
458.8	1773
459.0	1772
459.2	1773
459.4	1770
459.6	1768
459.8	1769
460.0	1769
460.2	1770
460.4	1772
460.6	1769
460.8	1771
461.0	1770
461.2	1770
461.4	1768
461.6	1767
461.8	1765
462.0	1768
462.2	1767
462.4	1766
462.6	1764
462.8	1763
463.0	1761
463.2	1761
463.4	1760
463.6	1758
463.8	1757
464.0	1756
464.2	1753
464.4	1751
464.6	1750
464.8	1748
465.0	1744
465.2	1743
465.4	1745
465.6	1746
465.8	1749
466.0	1747
466.2	1740
466.4	1735
466.6	1731
466.8	1726
467.0	1726
467.2	1725
467.4	1723
467.6	1721
467.8	1720
468.0	1718
468.2	1714
468.4	1711
468.6	1706
468.8	1703
469.0	1702
469.2	1701
469.4	1697
469.6	1694
469.8	1691
470.0	1690
470.2	1690
470.4	1687
470.6	1682
470.8	1679
471.0	1674
471.2	1671
471.4	1670
471.6	1668
471.8	1664
472.0	1662
472.2	1655
472.4	1650
472.6	1646
472.8	1642
473.0	1640
473.2	1638
473.4	1636
473.6	1633
473.8	1629
474.0	1625
474.2	1621
474.4	1616
474.6	1613
474.8	1608
475.0	1603
475.2	1599
475.4	1594
475.6	1589
475.8	1587
476.0	1586
476.2	1582
476.4	1578
476.6	1574
476.8	1567
477.0	1563
477.2	1559
477.4	1554
477.6	1549
477.8	1546
478.0	1542
478.2	1539
478.4	1539
478.6	1537
478.8	1532
479.0	1527
479.2	1522
479.4	1519
479.6	1516
479.8	1513
480.0	1505
480.2	1496
480.4	1492
480.6	1491
480.8	1490
481.0	1490
481.2	1485
481.4	1476
481.6	1470
481.8	1466
482.0	1464
482.2	1463
482.4	1457
482.6	1451
482.8	1448
483.0	1445
483.2	1442
483.4	1438
483.6	1432
483.8	1427
484.0	1422
484.2	1417
484.4	1413
484.6	1410
484.8	1405
485.0	1402
485.2	1397
485.4	1390
485.6	1386
485.8	1381
486.0	1379
486.2	1376
486.4	1373
486.6	1368
486.8	1361
487.0	1353
487.2	1349
487.4	1345
487.6	1342
487.8	1338
488.0	1334
488.2	1328
488.4	1322
488.6	1318
488.8	1314
489.0	1309
489.2	1305
489.4	1299
489.6	1294
489.8	1290
490.0	1285
490.2	1280
490.4	1274
490.6	1269
490.8	1264
491.0	1261
491.2	1258
491.4	1255
491.6	1250
491.8	1247
492.0	1240
492.2	1235
492.4	1229
492.6	1224
492.8	1218
493.0	1212
493.2	1207
493.4	1204
493.6	1202
493.8	1199
494.0	1194
494.2	1186
494.4	1180
494.6	1176
494.8	1171
495.0	1168
495.2	1163
495.4	1158
495.6	1153
495.8	1147
496.0	1139
496.2	1135
496.4	1130
496.6	1128
496.8	1124
497.0	1120
497.2	1116
497.4	1111
497.6	1107
497.8	1102
498.0	1095
498.2	1089
498.4	1085
498.6	1081
498.8	1075
499.0	1070
499.2	1064
499.4	1060
499.6	1057
499.8	1053
500.0	1046
500.2	1042
500.4	1037
500.6	1035
500.8	1030
501.0	1024
501.2	1018
501.4	1014
501.6	1010
501.8	1007
502.0	1002
502.2	996.2
502.4	991.3
502.6	986.0
502.8	981.4
503.0	977.0
503.2	972.3
503.4	967.7
503.6	963.2
503.8	956.0
504.0	950.0
504.2	945.9
504.4	943.5
504.6	940.6
504.8	935.8
505.0	929.0
505.2	922.6
505.4	917.7
505.6	914.2
505.8	911.3
506.0	908.1
506.2	904.1
506.4	897.5
506.6	892.0
506.8	887.3
507.0	882.9
507.2	880.0
507.4	876.7
507.6	872.4
507.8	868.6
508.0	863.1
508.2	855.8
508.4	851.1
508.6	847.4
508.8	844.5
509.0	841.2
509.2	836.1
509.4	830.3
509.6	825.6
509.8	822.4
510.0	818.8
510.2	814.1
510.4	809.8
510.6	804.5
510.8	799.9
511.0	796.9
511.2	792.9
511.4	787.2
511.6	781.9
511.8	777.5
512.0	774.0
512.2	771.4
512.4	767.9
512.6	762.7
512.8	755.7
513.0	751.9
513.2	749.3
513.4	747.2
513.6	744.6
513.8	740.4
514.0	733.3
514.2	727.7
514.4	724.0
514.6	720.5
514.8	717.9
515.0	714.9
515.2	710.2
515.4	706.1
515.6	703.5
515.8	699.1
516.0	696.7
516.2	692.7
516.4	688.2
516.6	685.0
516.8	680.9
517.0	675.4
517.2	670.9
517.4	667.2
517.6	663.6
517.8	661.0
518.0	656.8
518.2	653.7
518.4	649.0
518.6	645.4
518.8	641.5
519.0	638.5
519.2	634.7
519.4	631.6
519.6	626.7
519.8	623.7
520.0	620.2
520.2	617.0
520.4	613.8
520.6	610.8
520.8	607.2
521.0	605.7
521.2	602.0
521.4	597.8
521.6	593.9
521.8	590.3
522.0	586.3
522.2	583.6
522.4	580.8
522.6	577.9
522.8	574.0
523.0	569.9
523.2	566.2
523.4	563.2
523.6	560.5
523.8	557.9
524.0	554.7
524.2	551.9
524.4	550.1
524.6	547.8
524.8	545.0
525.0	542.1
525.2	538.2
525.4	534.9
525.6	531.4
525.8	528.7
526.0	525.9
526.2	523.0
526.4	520.3
526.6	516.6
526.8	511.9
527.0	508.0
527.2	505.4
527.4	503.5
527.6	502.5
527.8	499.7
528.0	496.1
528.2	491.5
528.4	489.3
528.6	486.0
528.8	483.3
529.0	481.2
529.2	478.6
529.4	475.8
529.6	474.9
529.8	471.8
530.0	468.3
530.2	464.9
530.4	461.8
530.6	459.8
530.8	458.4
531.0	455.6
531.2	452.1
531.4	448.7
531.6	445.8
531.8	443.8
532.0	441.6
532.2	438.3
532.4	436.3
532.6	434.6
532.8	433.3
533.0	430.5
533.2	427.1
533.4	423.0
533.6	420.2
533.8	418.0
534.0	417.0
534.2	414.3
534.4	411.5
534.6	409.5
534.8	407.5
535.0	405.1
535.2	403.2
535.4	399.9
535.6	396.9
535.8	394.5
536.0	392.8
536.2	390.0
536.4	387.5
536.6	384.8
536.8	382.8
537.0	380.7
537.2	379.1
537.4	376.7
537.6	373.9
537.8	371.2
538.0	368.5
538.2	366.6
538.4	364.6
538.6	363.4
538.8	362.0
539.0	359.3
539.2	356.9
539.4	354.5
539.6	351.9
539.8	349.8
540.0	348.3
540.2	345.4
540.4	344.3
540.6	342.4
540.8	340.4
541.0	338.6
541.2	336.2
541.4	332.9
541.6	331.4
541.8	329.2
542.0	326.7
542.2	324.5
542.4	322.6
542.6	320.9
542.8	320.0
543.0	318.5
543.2	317.1
543.4	314.8
543.6	313.6
543.8	312.1
544.0	310.1
544.2	307.6
544.4	305.2
544.6	302.3
544.8	300.0
545.0	298.1
545.2	295.8
545.4	294.2
545.6	292.1
545.8	291.1
546.0	289.8
546.2	288.3
546.4	286.0
546.6	283.9
546.8	281.9
547.0	281.1
547.2	279.9
547.4	278.8
547.6	277.9
547.8	276.0
548.0	274.4
548.2	271.8
548.4	269.3
548.6	267.2
548.8	265.6
549.0	263.7
549.2	262.1
549.4	260.5
549.6	259.0
549.8	257.5
550.0	255.8
550.2	254.2
550.4	252.2
550.6	251.1
550.8	249.2
551.0	247.4
551.2	246.4
551.4	245.7
551.6	243.8
551.8	242.2
552.0	239.3
552.2	237.0
552.4	236.0
552.6	235.3
552.8	233.8
553.0	232.5
553.2	230.5
553.4	228.9
553.6	227.6
553.8	226.5
554.0	225.2
554.2	223.8
554.4	222.8
554.6	220.9
554.8	219.6
555.0	218.3
555.2	216.5
555.4	214.6
555.6	213.3
555.8	211.5
556.0	210.6
556.2	209.7
556.4	208.7
556.6	207.8
556.8	206.5
557.0	204.8
557.2	203.1
557.4	201.8
557.6	200.2
557.8	199.0
558.0	197.3
558.2	196.0
558.4	194.9
558.6	194.2
558.8	193.1
559.0	191.6
559.2	190.2
559.4	188.6
559.6	187.5
559.8	186.7
560.0	185.6
560.2	184.2
560.4	182.7
560.6	181.1
560.8	180.2
561.0	179.9
561.2	178.8
561.4	178.1
561.6	176.6
561.8	174.8
562.0	173.1
562.2	171.6
562.4	170.6
562.6	169.6
562.8	169.1
563.0	168.0
563.2	166.3
563.4	165.1
563.6	164.5
563.8	163.3
564.0	162.9
564.2	161.8
564.4	160.3
564.6	159.2
564.8	158.0
565.0	156.8
565.2	155.9
565.4	155.2
565.6	154.1
565.8	153.1
566.0	152.4
566.2	151.8
566.4	150.9
566.6	149.7
566.8	148.5
567.0	147.4
567.2	146.8
567.4	145.8
567.6	144.3
567.8	142.5
568.0	141.7
568.2	140.7
568.4	140.6
568.6	139.9
568.8	139.3
569.0	138.2
569.2	137.3
569.4	136.1
569.6	135.2
569.8	134.5
570.0	133.9
570.2	132.9
570.4	131.9
570.6	131.0
570.8	130.4
571.0	129.8
571.2	129.2
571.4	127.9
571.6	126.8
571.8	125.6
572.0	124.7
572.2	123.6
572.4	122.9
572.6	121.7
572.8	121.0
573.0	120.2
573.2	119.9
573.4	119.7
573.6	119.1
573.8	118.0
574.0	117.2
574.2	115.8
574.4	115.5
574.6	115.5
574.8	115.0
575.0	114.3
575.2	113.8
575.4	112.1
575.6	111.3
575.8	110.5
576.0	110.1
576.2	109.6
576.4	108.7
576.6	107.3
576.8	106.6
577.0	106.1
577.2	105.9
577.4	105.6
577.6	104.6
577.8	103.6
578.0	103.0
578.2	102.6
578.4	102.2
578.6	101.8
578.8	100.8
579.0	99.71
579.2	98.56
579.4	97.77
579.6	97.34
579.8	96.69
580.0	96.28
580.2	96.07
580.4	95.50
580.6	94.98
580.8	94.03
581.0	92.98
581.2	92.19
581.4	91.79
581.6	91.36
581.8	91.00
582.0	90.18
582.2	89.57
582.4	89.23
582.6	89.39
582.8	88.98
583.0	88.18
583.2	87.28
583.4	86.60
583.6	86.36
583.8	86.21
584.0	85.32
584.2	84.48
584.4	83.90
584.6	83.45
584.8	82.78
585.0	82.50
585.2	81.83
585.4	81.41
585.6	81.20
585.8	80.33
586.0	79.08
586.2	78.44
586.4	78.26
586.6	78.02
586.8	78.02
587.0	77.57
587.2	76.88
587.4	76.28
587.6	75.77
587.8	74.98
588.0	74.60
588.2	74.30
588.4	74.06
588.6	73.65
588.8	72.52
589.0	71.79
589.2	71.52
589.4	70.97
589.6	70.92
589.8	70.36
590.0	69.63
590.2	69.05
590.4	68.78
590.6	68.04
590.8	67.82
591.0	67.39
591.2	67.25
591.4	66.92
591.6	66.69
591.8	65.99
592.0	65.35
592.2	65.02
592.4	64.72
592.6	64.63
592.8	64.19
593.0	63.58
593.2	62.92
593.4	62.49
593.6	62.18
593.8	61.98
594.0	61.62
594.2	61.16
594.4	60.68
594.6	60.18
594.8	60.10
595.0	59.53
595.2	59.03
595.4	58.43
595.6	58.14
595.8	57.93
596.0	57.90
596.2	57.23
596.4	56.48
596.6	55.96
596.8	55.82
597.0	55.73
597.2	55.79
597.4	55.47
597.6	55.01
597.8	54.47
598.0	53.97
598.2	52.99
598.4	52.79
598.6	52.45
598.8	52.32
599.0	52.29
599.2	52.22
599.4	51.35
599.6	50.93
599.8	50.41
600.0	50.07
600.2	50.05
600.4	50.00
600.6	49.58
600.8	49.08
601.0	48.85
601.2	48.51
601.4	48.15
601.6	47.86
601.8	47.61
602.0	47.14
602.2	47.14
602.4	46.97
602.6	46.58
602.8	46.24
603.0	45.86
603.2	45.29
603.4	44.94
603.6	44.61
603.8	44.17
604.0	43.92
604.2	43.80
604.4	43.71
604.6	43.39
604.8	42.93
605.0	42.49
605.2	42.28
605.4	42.13
605.6	41.79
605.8	41.49
606.0	40.99
606.2	40.59
606.4	40.25
606.6	40.20
606.8	39.99
607.0	39.99
607.2	39.98
607.4	39.81
607.6	39.21
607.8	38.75
608.0	38.28
608.2	37.89
608.4	37.94
608.6	38.21
608.8	38.07
609.0	37.93
609.2	37.50
609.4	37.17
609.6	36.90
609.8	36.63
610.0	36.33
610.2	35.85
610.4	35.39
610.6	35.33
610.8	35.17
611.0	34.96
611.2	34.81
611.4	34.47
611.6	34.11
611.8	33.98
612.0	33.72
612.2	33.58
612.4	33.32
612.6	33.01
612.8	32.54
613.0	32.24
613.2	32.05
613.4	31.79
613.6	31.67
613.8	31.48
614.0	31.31
614.2	31.24
614.4	31.30
614.6	30.93
614.8	30.74
615.0	30.37
615.2	30.07
615.4	29.79
615.6	29.71
615.8	29.57
616.0	29.52
616.2	29.36
616.4	29.15
616.6	28.67
616.8	28.35
617.0	28.12
617.2	27.95
617.4	27.90
617.6	27.75
617.8	27.47
618.0	27.32
618.2	27.29
618.4	27.27
618.6	27.25
618.8	26.86
619.0	26.60
619.2	26.49
619.4	26.55
619.6	26.42
619.8	26.32
620.0	25.84
620.2	25.67
620.4	25.58
620.6	25.33
620.8	24.78
621.0	24.49
621.2	24.27
621.4	24.29
621.6	24.26
621.8	24.16
622.0	23.89
622.2	23.62
622.4	23.43
622.6	23.30
622.8	23.20
623.0	23.34
623.2	23.14
623.4	23.00
623.6	22.73
623.8	22.38
624.0	22.05
624.2	21.99
624.4	21.80
624.6	21.93
624.8	21.82
625.0	21.58
625.2	21.24
625.4	21.18
625.6	21.06
625.8	21.14
626.0	20.95
626.2	20.68
626.4	20.37
626.6	20.29
626.8	20.19
627.0	20.17
627.2	20.03
627.4	19.85
627.6	19.73
627.8	19.60
628.0	19.57
628.2	19.40
628.4	19.14
628.6	18.83
628.8	18.69
629.0	18.53
629.2	18.60
629.4	18.46
629.6	18.28
629.8	18.10
630.0	18.00
630.2	17.82
630.4	17.74
630.6	17.42
630.8	17.35
631.0	17.19
631.2	17.17
631.4	17.13
631.6	17.08
631.8	16.83
632.0	16.72
632.2	16.62
632.4	16.65
632.6	16.54
632.8	16.46
633.0	16.30
633.2	16.15
633.4	16.07
633.6	15.92
633.8	15.70
634.0	15.48
634.2	15.42
634.4	15.39
634.6	15.29
634.8	15.20
635.0	15.11
635.2	15.08
635.4	15.18
635.6	15.12
635.8	14.96
636.0	14.61
636.2	14.24
636.4	14.10
636.6	14.21
636.8	14.18
637.0	14.05
637.2	13.87
637.4	13.83
637.6	13.79
637.8	13.95
638.0	13.85
638.2	13.60
638.4	13.40
638.6	13.29
638.8	13.25
639.0	13.09
639.2	12.96
639.4	12.88
639.6	12.91
639.8	12.90
640.0	12.93
640.2	12.80
640.4	12.53
640.6	12.46
640.8	12.41
641.0	12.29
641.2	12.20
641.4	12.21
641.6	11.97
641.8	12.05
642.0	11.93
642.2	11.85
642.4	11.84
642.6	11.75
642.8	11.65
643.0	11.48
643.2	11.42
643.4	11.41
643.6	11.43
643.8	11.39
644.0	11.22
644.2	10.99
644.4	11.02
644.6	10.88
644.8	10.76
645.0	10.84
645.2	10.80
645.4	10.79
645.6	10.77
645.8	10.55
646.0	10.31
646.2	10.26
646.4	10.14
646.6	10.07
646.8	10.12
647.0	10.03
647.2	10.02
647.4	9.944
647.6	9.806
647.8	9.755
648.0	9.730
648.2	9.557
648.4	9.505
648.6	9.440
648.8	9.331
649.0	9.389
649.2	9.348
649.4	9.212
649.6	9.147
649.8	9.200
650.0	9.057
650.2	8.965
650.4	8.772
650.6	8.658
650.8	8.656
651.0	8.805
651.2	8.750
651.4	8.635
651.6	8.431
651.8	8.341
652.0	8.274
652.2	8.315
652.4	8.301
652.6	8.243
652.8	8.175
653.0	8.202
653.2	8.101
653.4	8.123
653.6	8.116
653.8	7.918
654.0	7.856
654.2	7.766
654.4	7.734
654.6	7.754
654.8	7.652
655.0	7.581
655.2	7.510
655.4	7.430
655.6	7.449
655.8	7.475
656.0	7.387
656.2	7.399
656.4	7.226
656.6	7.095
656.8	7.036
657.0	7.020
657.2	6.987
657.4	6.976
657.6	6.915
657.8	6.885
658.0	6.913
658.2	6.872
658.4	6.790
658.6	6.684
658.8	6.682
659.0	6.673
659.2	6.621
659.4	6.565
659.6	6.454
659.8	6.429
660.0	6.417
660.2	6.345
660.4	6.250
660.6	6.198
660.8	6.076
661.0	6.077
661.2	6.035
661.4	5.981
661.6	6.020
661.8	6.104
662.0	6.111
662.2	6.118
662.4	6.091
662.6	5.943
662.8	5.923
663.0	5.847
663.2	5.655
663.4	5.554
663.6	5.541
663.8	5.510
664.0	5.604
664.2	5.587
664.4	5.474
664.6	5.380
664.8	5.363
665.0	5.364
665.2	5.379
665.4	5.362
665.6	5.354
665.8	5.258
666.0	5.156
666.2	5.152
666.4	5.136
666.6	5.170
666.8	5.167
667.0	5.145
667.2	5.079
667.4	5.025
667.6	4.994
667.8	4.986
668.0	4.987
668.2	4.992
668.4	4.991
668.6	4.928
668.8	4.881
669.0	4.849
669.2	4.822
669.4	4.734
669.6	4.660
669.8	4.590
670.0	4.474
670.2	4.489
670.4	4.499
670.6	4.480
670.8	4.422
671.0	4.440
671.2	4.286
671.4	4.230
671.6	4.234
671.8	4.269
672.0	4.315
672.2	4.344
672.4	4.257
672.6	4.179
672.8	4.196
673.0	4.151
673.2	4.217
673.4	4.247
673.6	4.189
673.8	4.149
674.0	4.067
674.2	3.936
674.4	3.991
674.6	4.016
674.8	3.937
675.0	3.877
675.2	3.733
675.4	3.776
675.6	3.856
675.8	3.862
676.0	3.832
676.2	3.829
676.4	3.771
676.6	3.824
676.8	3.773
677.0	3.735
677.2	3.604
677.4	3.634
677.6	3.610
677.8	3.649
678.0	3.612
678.2	3.592
678.4	3.516
678.6	3.536
678.8	3.498
679.0	3.523
679.2	3.519
679.4	3.479
679.6	3.492
679.8	3.485
680.0	3.425
680.2	3.397
680.4	3.358
680.6	3.322
680.8	3.290
681.0	3.243
681.2	3.247
681.4	3.225
681.6	3.216
681.8	3.168
682.0	3.115
682.2	3.059
682.4	3.080
682.6	3.071
682.8	3.103
683.0	3.060
683.2	3.129
683.4	3.140
683.6	3.125
683.8	3.089
684.0	3.006
684.2	2.988
684.4	3.011
684.6	3.071
684.8	3.070
685.0	3.054
685.2	3.020
685.4	3.040
685.6	2.964
685.8	2.945
686.0	2.859
686.2	2.809
686.4	2.891
686.6	2.917
686.8	2.918
687.0	2.954
687.2	2.893
687.4	2.822
687.6	2.809
687.8	2.759
688.0	2.697
688.2	2.701
688.4	2.641
688.6	2.661
688.8	2.686
689.0	2.706
689.2	2.657
689.4	2.664
689.6	2.637
689.8	2.660
690.0	2.657
690.2	2.651
690.4	2.610
690.6	2.684
690.8	2.669
691.0	2.653
691.2	2.655
691.4	2.615
691.6	2.581
691.8	2.592
692.0	2.565
692.2	2.584
692.4	2.617
692.6	2.581
692.8	2.586
693.0	2.595
693.2	2.548
693.4	2.515
693.6	2.476
693.8	2.415
694.0	2.452
694.2	2.505
694.4	2.515
694.6	2.548
694.8	2.556
695.0	2.501
695.2	2.469
695.4	2.429
695.6	2.426
695.8	2.419
696.0	2.457
696.2	2.439
696.4	2.451
696.6	2.453
696.8	2.480
697.0	2.456
697.2	2.449
697.4	2.380
697.6	2.320
697.8	2.273
698.0	2.295
698.2	2.290
698.4	2.298
698.6	2.338
698.8	2.346
699.0	2.359
699.2	2.359
699.4	2.386
699.6	2.405
699.8	2.385
700.0	2.298

