Sample:	'20211010A(EM)
File name:	B-NI 2 200.FDS
Run date:	'10:27:19, 06/20/2023
Operator:	Administrator
Comment:	'

Instrument
Model:	F-4700 FL Spectrophotometer
Serial number:	2019-001
ROM Version:	5J24010 00

Instrument parameters
Measurement type:	Wavelength scan
Scan mode:	Emission
Data mode:	Fluorescence
EX WL:	350.0 nm
EM  Start WL:	370.0 nm
EM  End WL:	700.0 nm
Scan speed:	1200 nm/min
Delay:	0.0 s
EX Slit:	10.0 nm
EM Slit:	10.0 nm
PMT Voltage:	312 V
Response:	0.002 s
Corrected spectra:	Off
Shutter control:	On

Processing performed
Savitsky-Golay smoothed
Smoothing order:	3
Number of points:	7
Number of times:	1

Peak integration
Integration method:	Rectangular
Sensitivity:	1
Threshold:	1.000

Peaks
No.	Start(nm)	Apex(nm)	End(nm)	Height(Data)	Valley(nm)	Valley(Data)
1	370.0	449.6	450.4	3910	450.4	3894
2	450.4	451.8	454.2	3910	454.2	3893
3	454.2	455.0	700.0	3903	700.0	3.578

Data points
nm	Data
370.0	14.15
370.2	14.35
370.4	14.57
370.6	14.82
370.8	15.11
371.0	15.50
371.2	15.70
371.4	15.99
371.6	16.35
371.8	16.64
372.0	16.99
372.2	17.38
372.4	17.63
372.6	18.08
372.8	18.66
373.0	19.14
373.2	19.63
373.4	20.06
373.6	20.37
373.8	20.68
374.0	21.13
374.2	21.54
374.4	22.01
374.6	22.51
374.8	22.97
375.0	23.30
375.2	23.82
375.4	24.41
375.6	25.01
375.8	25.64
376.0	26.24
376.2	26.78
376.4	27.68
376.6	28.44
376.8	29.15
377.0	29.76
377.2	30.15
377.4	30.65
377.6	31.43
377.8	32.13
378.0	32.80
378.2	33.62
378.4	34.33
378.6	35.22
378.8	36.10
379.0	36.89
379.2	37.46
379.4	38.40
379.6	39.30
379.8	40.43
380.0	41.58
380.2	42.61
380.4	43.52
380.6	44.74
380.8	45.61
381.0	46.74
381.2	47.97
381.4	49.25
381.6	50.54
381.8	51.81
382.0	52.65
382.2	53.70
382.4	54.84
382.6	56.26
382.8	57.79
383.0	59.47
383.2	61.26
383.4	62.88
383.6	64.25
383.8	65.67
384.0	67.23
384.2	69.19
384.4	71.09
384.6	73.10
384.8	74.88
385.0	76.96
385.2	78.91
385.4	80.90
385.6	82.75
385.8	85.13
386.0	87.41
386.2	89.86
386.4	92.28
386.6	94.45
386.8	96.64
387.0	99.19
387.2	102.0
387.4	104.6
387.6	107.3
387.8	110.1
388.0	112.8
388.2	115.8
388.4	118.9
388.6	121.9
388.8	124.5
389.0	127.9
389.2	131.2
389.4	134.9
389.6	138.3
389.8	142.0
390.0	145.3
390.2	149.2
390.4	153.1
390.6	157.2
390.8	161.6
391.0	165.9
391.2	170.0
391.4	174.2
391.6	178.4
391.8	182.9
392.0	187.2
392.2	191.8
392.4	196.5
392.6	201.3
392.8	206.4
393.0	211.4
393.2	216.7
393.4	222.2
393.6	227.6
393.8	233.0
394.0	238.6
394.2	244.1
394.4	251.0
394.6	257.3
394.8	263.5
395.0	270.1
395.2	277.2
395.4	284.5
395.6	292.1
395.8	299.4
396.0	305.9
396.2	312.9
396.4	320.1
396.6	327.3
396.8	334.5
397.0	342.6
397.2	350.9
397.4	360.1
397.6	368.4
397.8	377.0
398.0	384.6
398.2	392.1
398.4	400.7
398.6	410.0
398.8	418.5
399.0	429.6
399.2	440.1
399.4	450.6
399.6	461.2
399.8	471.7
400.0	481.1
400.2	491.5
400.4	502.1
400.6	513.4
400.8	525.1
401.0	536.5
401.2	547.3
401.4	558.0
401.6	568.1
401.8	579.7
402.0	591.9
402.2	604.7
402.4	617.3
402.6	630.1
402.8	641.2
403.0	653.6
403.2	665.1
403.4	678.1
403.6	691.3
403.8	705.0
404.0	718.4
404.2	731.8
404.4	744.4
404.6	759.1
404.8	773.3
405.0	789.3
405.2	805.4
405.4	821.3
405.6	836.9
405.8	852.0
406.0	864.8
406.2	879.3
406.4	893.3
406.6	908.0
406.8	923.7
407.0	938.3
407.2	953.7
407.4	969.7
407.6	986.0
407.8	1003
408.0	1020
408.2	1037
408.4	1055
408.6	1070
408.8	1086
409.0	1103
409.2	1119
409.4	1137
409.6	1154
409.8	1171
410.0	1187
410.2	1206
410.4	1222
410.6	1241
410.8	1260
411.0	1279
411.2	1297
411.4	1315
411.6	1330
411.8	1350
412.0	1370
412.2	1387
412.4	1404
412.6	1422
412.8	1438
413.0	1458
413.2	1477
413.4	1495
413.6	1513
413.8	1533
414.0	1551
414.2	1568
414.4	1586
414.6	1607
414.8	1629
415.0	1650
415.2	1668
415.4	1688
415.6	1706
415.8	1728
416.0	1747
416.2	1764
416.4	1780
416.6	1801
416.8	1818
417.0	1838
417.2	1857
417.4	1877
417.6	1896
417.8	1916
418.0	1937
418.2	1957
418.4	1978
418.6	1997
418.8	2012
419.0	2026
419.2	2044
419.4	2064
419.6	2086
419.8	2110
420.0	2131
420.2	2153
420.4	2173
420.6	2190
420.8	2206
421.0	2222
421.2	2241
421.4	2260
421.6	2284
421.8	2305
422.0	2327
422.2	2345
422.4	2362
422.6	2378
422.8	2396
423.0	2412
423.2	2434
423.4	2455
423.6	2476
423.8	2497
424.0	2512
424.2	2525
424.4	2540
424.6	2555
424.8	2574
425.0	2593
425.2	2611
425.4	2626
425.6	2645
425.8	2664
426.0	2685
426.2	2709
426.4	2730
426.6	2748
426.8	2764
427.0	2778
427.2	2789
427.4	2804
427.6	2822
427.8	2841
428.0	2858
428.2	2877
428.4	2893
428.6	2912
428.8	2929
429.0	2945
429.2	2958
429.4	2972
429.6	2989
429.8	3009
430.0	3028
430.2	3047
430.4	3064
430.6	3078
430.8	3086
431.0	3098
431.2	3112
431.4	3127
431.6	3146
431.8	3164
432.0	3177
432.2	3195
432.4	3209
432.6	3223
432.8	3238
433.0	3252
433.2	3267
433.4	3283
433.6	3296
433.8	3305
434.0	3315
434.2	3328
434.4	3343
434.6	3360
434.8	3375
435.0	3389
435.2	3404
435.4	3416
435.6	3429
435.8	3440
436.0	3447
436.2	3459
436.4	3469
436.6	3481
436.8	3496
437.0	3511
437.2	3523
437.4	3535
437.6	3543
437.8	3550
438.0	3561
438.2	3575
438.4	3587
438.6	3593
438.8	3599
439.0	3606
439.2	3617
439.4	3630
439.6	3640
439.8	3649
440.0	3657
440.2	3667
440.4	3677
440.6	3690
440.8	3695
441.0	3702
441.2	3707
441.4	3715
441.6	3724
441.8	3734
442.0	3737
442.2	3742
442.4	3752
442.6	3761
442.8	3769
443.0	3770
443.2	3772
443.4	3775
443.6	3789
443.8	3798
444.0	3803
444.2	3805
444.4	3804
444.6	3805
444.8	3808
445.0	3809
445.2	3816
445.4	3824
445.6	3833
445.8	3841
446.0	3847
446.2	3849
446.4	3850
446.6	3850
446.8	3854
447.0	3856
447.2	3862
447.4	3865
447.6	3869
447.8	3877
448.0	3884
448.2	3889
448.4	3891
448.6	3888
448.8	3893
449.0	3895
449.2	3904
449.4	3909
449.6	3910
449.8	3904
450.0	3902
450.2	3896
450.4	3894
450.6	3894
450.8	3895
451.0	3896
451.2	3901
451.4	3902
451.6	3905
451.8	3910
452.0	3910
452.2	3905
452.4	3905
452.6	3901
452.8	3902
453.0	3904
453.2	3904
453.4	3899
453.6	3898
453.8	3895
454.0	3896
454.2	3893
454.4	3895
454.6	3898
454.8	3903
455.0	3903
455.2	3900
455.4	3892
455.6	3886
455.8	3878
456.0	3879
456.2	3877
456.4	3876
456.6	3875
456.8	3870
457.0	3861
457.2	3860
457.4	3861
457.6	3858
457.8	3856
458.0	3851
458.2	3842
458.4	3841
458.6	3836
458.8	3831
459.0	3827
459.2	3824
459.4	3824
459.6	3823
459.8	3822
460.0	3822
460.2	3812
460.4	3806
460.6	3799
460.8	3793
461.0	3789
461.2	3780
461.4	3771
461.6	3765
461.8	3758
462.0	3758
462.2	3751
462.4	3745
462.6	3744
462.8	3742
463.0	3738
463.2	3732
463.4	3725
463.6	3717
463.8	3710
464.0	3703
464.2	3695
464.4	3684
464.6	3677
464.8	3667
465.0	3659
465.2	3652
465.4	3647
465.6	3643
465.8	3640
466.0	3633
466.2	3625
466.4	3619
466.6	3611
466.8	3604
467.0	3592
467.2	3581
467.4	3569
467.6	3563
467.8	3557
468.0	3551
468.2	3544
468.4	3541
468.6	3533
468.8	3522
469.0	3513
469.2	3500
469.4	3491
469.6	3483
469.8	3475
470.0	3466
470.2	3458
470.4	3449
470.6	3439
470.8	3430
471.0	3421
471.2	3414
471.4	3405
471.6	3396
471.8	3386
472.0	3380
472.2	3372
472.4	3366
472.6	3356
472.8	3342
473.0	3328
473.2	3318
473.4	3305
473.6	3296
473.8	3286
474.0	3276
474.2	3268
474.4	3261
474.6	3250
474.8	3241
475.0	3229
475.2	3218
475.4	3213
475.6	3207
475.8	3201
476.0	3193
476.2	3178
476.4	3167
476.6	3160
476.8	3149
477.0	3144
477.2	3135
477.4	3123
477.6	3116
477.8	3105
478.0	3092
478.2	3081
478.4	3071
478.6	3063
478.8	3056
479.0	3047
479.2	3039
479.4	3028
479.6	3019
479.8	3008
480.0	2996
480.2	2988
480.4	2978
480.6	2967
480.8	2956
481.0	2945
481.2	2935
481.4	2930
481.6	2921
481.8	2911
482.0	2901
482.2	2892
482.4	2883
482.6	2877
482.8	2868
483.0	2856
483.2	2847
483.4	2838
483.6	2828
483.8	2817
484.0	2808
484.2	2800
484.4	2794
484.6	2789
484.8	2781
485.0	2768
485.2	2755
485.4	2740
485.6	2726
485.8	2718
486.0	2706
486.2	2697
486.4	2688
486.6	2681
486.8	2672
487.0	2663
487.2	2650
487.4	2641
487.6	2635
487.8	2632
488.0	2623
488.2	2612
488.4	2598
488.6	2583
488.8	2574
489.0	2571
489.2	2563
489.4	2554
489.6	2542
489.8	2527
490.0	2516
490.2	2507
490.4	2501
490.6	2494
490.8	2484
491.0	2471
491.2	2459
491.4	2446
491.6	2439
491.8	2432
492.0	2424
492.2	2413
492.4	2401
492.6	2391
492.8	2381
493.0	2370
493.2	2364
493.4	2353
493.6	2343
493.8	2335
494.0	2324
494.2	2311
494.4	2300
494.6	2287
494.8	2277
495.0	2270
495.2	2261
495.4	2251
495.6	2244
495.8	2234
496.0	2225
496.2	2214
496.4	2200
496.6	2188
496.8	2180
497.0	2171
497.2	2165
497.4	2155
497.6	2141
497.8	2130
498.0	2122
498.2	2113
498.4	2107
498.6	2098
498.8	2085
499.0	2073
499.2	2064
499.4	2055
499.6	2046
499.8	2039
500.0	2027
500.2	2016
500.4	2008
500.6	1998
500.8	1987
501.0	1977
501.2	1967
501.4	1959
501.6	1951
501.8	1942
502.0	1931
502.2	1920
502.4	1914
502.6	1906
502.8	1900
503.0	1890
503.2	1880
503.4	1867
503.6	1856
503.8	1845
504.0	1836
504.2	1825
504.4	1817
504.6	1806
504.8	1796
505.0	1787
505.2	1777
505.4	1770
505.6	1761
505.8	1752
506.0	1742
506.2	1731
506.4	1719
506.6	1713
506.8	1703
507.0	1695
507.2	1688
507.4	1679
507.6	1668
507.8	1661
508.0	1654
508.2	1644
508.4	1634
508.6	1623
508.8	1615
509.0	1607
509.2	1601
509.4	1593
509.6	1585
509.8	1575
510.0	1567
510.2	1558
510.4	1550
510.6	1543
510.8	1535
511.0	1525
511.2	1515
511.4	1505
511.6	1499
511.8	1492
512.0	1486
512.2	1476
512.4	1467
512.6	1458
512.8	1451
513.0	1445
513.2	1436
513.4	1425
513.6	1414
513.8	1404
514.0	1397
514.2	1391
514.4	1387
514.6	1379
514.8	1371
515.0	1364
515.2	1356
515.4	1350
515.6	1344
515.8	1335
516.0	1328
516.2	1320
516.4	1312
516.6	1304
516.8	1295
517.0	1288
517.2	1282
517.4	1274
517.6	1267
517.8	1259
518.0	1252
518.2	1245
518.4	1239
518.6	1232
518.8	1225
519.0	1219
519.2	1212
519.4	1204
519.6	1198
519.8	1193
520.0	1186
520.2	1179
520.4	1171
520.6	1161
520.8	1154
521.0	1147
521.2	1141
521.4	1135
521.6	1129
521.8	1122
522.0	1116
522.2	1110
522.4	1104
522.6	1095
522.8	1088
523.0	1079
523.2	1072
523.4	1069
523.6	1064
523.8	1058
524.0	1052
524.2	1044
524.4	1037
524.6	1033
524.8	1027
525.0	1020
525.2	1014
525.4	1007
525.6	1002
525.8	997.1
526.0	992.6
526.2	987.5
526.4	981.0
526.6	974.3
526.8	967.8
527.0	962.4
527.2	957.8
527.4	954.0
527.6	947.7
527.8	941.5
528.0	935.0
528.2	928.5
528.4	922.9
528.6	917.7
528.8	912.5
529.0	906.8
529.2	902.2
529.4	896.2
529.6	890.6
529.8	884.1
530.0	877.7
530.2	871.2
530.4	867.0
530.6	862.6
530.8	857.1
531.0	852.5
531.2	846.8
531.4	839.5
531.6	835.0
531.8	829.5
532.0	823.9
532.2	820.9
532.4	816.8
532.6	811.3
532.8	806.3
533.0	800.8
533.2	796.6
533.4	791.9
533.6	786.0
533.8	780.5
534.0	773.6
534.2	768.1
534.4	764.5
534.6	761.1
534.8	757.9
535.0	753.7
535.2	748.3
535.4	743.9
535.6	739.0
535.8	733.9
536.0	728.7
536.2	723.1
536.4	717.8
536.6	714.4
536.8	710.3
537.0	706.7
537.2	702.3
537.4	696.9
537.6	691.8
537.8	688.0
538.0	685.1
538.2	681.3
538.4	676.6
538.6	671.2
538.8	667.1
539.0	663.2
539.2	660.5
539.4	656.4
539.6	652.2
539.8	647.7
540.0	643.1
540.2	638.0
540.4	633.2
540.6	628.8
540.8	625.1
541.0	621.7
541.2	618.1
541.4	614.0
541.6	610.2
541.8	605.7
542.0	601.6
542.2	598.4
542.4	595.2
542.6	590.8
542.8	587.3
543.0	582.8
543.2	577.7
543.4	574.7
543.6	571.8
543.8	568.5
544.0	566.2
544.2	562.5
544.4	558.9
544.6	555.3
544.8	551.2
545.0	546.5
545.2	543.6
545.4	539.7
545.6	537.4
545.8	534.2
546.0	530.1
546.2	526.0
546.4	522.6
546.6	518.7
546.8	515.8
547.0	513.1
547.2	509.2
547.4	505.3
547.6	501.8
547.8	498.7
548.0	495.6
548.2	493.4
548.4	490.3
548.6	486.6
548.8	483.8
549.0	480.2
549.2	476.8
549.4	473.8
549.6	471.3
549.8	468.3
550.0	465.4
550.2	461.9
550.4	459.2
550.6	455.7
550.8	452.8
551.0	449.6
551.2	446.8
551.4	443.9
551.6	441.7
551.8	438.4
552.0	434.9
552.2	432.2
552.4	430.1
552.6	426.6
552.8	423.6
553.0	419.7
553.2	416.5
553.4	414.5
553.6	412.6
553.8	409.7
554.0	406.7
554.2	403.7
554.4	401.6
554.6	399.8
554.8	396.7
555.0	393.6
555.2	390.5
555.4	387.5
555.6	385.1
555.8	382.9
556.0	380.0
556.2	377.5
556.4	375.9
556.6	373.2
556.8	370.6
557.0	368.0
557.2	365.5
557.4	363.0
557.6	360.7
557.8	357.9
558.0	355.2
558.2	353.1
558.4	351.3
558.6	349.4
558.8	347.0
559.0	344.6
559.2	342.2
559.4	340.0
559.6	337.6
559.8	335.5
560.0	333.3
560.2	331.1
560.4	328.9
560.6	326.9
560.8	324.4
561.0	322.7
561.2	320.5
561.4	319.0
561.6	316.6
561.8	314.0
562.0	311.5
562.2	309.5
562.4	307.3
562.6	305.6
562.8	303.7
563.0	301.4
563.2	299.5
563.4	297.4
563.6	295.4
563.8	293.1
564.0	290.9
564.2	288.2
564.4	286.3
564.6	284.1
564.8	282.5
565.0	280.8
565.2	279.2
565.4	277.2
565.6	276.0
565.8	274.3
566.0	272.8
566.2	271.1
566.4	269.1
566.6	266.8
566.8	265.2
567.0	264.0
567.2	262.3
567.4	260.0
567.6	257.6
567.8	255.0
568.0	253.5
568.2	252.2
568.4	250.7
568.6	249.3
568.8	248.0
569.0	246.4
569.2	245.0
569.4	243.0
569.6	241.0
569.8	238.6
570.0	237.1
570.2	235.6
570.4	234.2
570.6	232.6
570.8	231.4
571.0	229.8
571.2	228.4
571.4	226.4
571.6	224.3
571.8	222.4
572.0	221.1
572.2	220.3
572.4	219.1
572.6	217.7
572.8	216.3
573.0	215.4
573.2	213.5
573.4	212.1
573.6	210.7
573.8	209.0
574.0	207.7
574.2	206.5
574.4	204.1
574.6	202.3
574.8	201.2
575.0	199.6
575.2	198.4
575.4	197.6
575.6	196.3
575.8	195.0
576.0	194.1
576.2	192.3
576.4	190.4
576.6	189.1
576.8	187.9
577.0	186.9
577.2	185.9
577.4	184.8
577.6	183.6
577.8	182.6
578.0	181.2
578.2	179.9
578.4	178.6
578.6	177.5
578.8	176.8
579.0	175.9
579.2	174.6
579.4	173.0
579.6	171.3
579.8	169.8
580.0	168.8
580.2	168.0
580.4	166.7
580.6	165.5
580.8	164.5
581.0	163.3
581.2	161.9
581.4	160.7
581.6	159.3
581.8	158.3
582.0	157.3
582.2	156.5
582.4	155.3
582.6	154.2
582.8	153.2
583.0	152.2
583.2	151.2
583.4	150.9
583.6	150.3
583.8	149.3
584.0	148.3
584.2	147.1
584.4	145.9
584.6	144.9
584.8	143.8
585.0	142.5
585.2	141.5
585.4	140.7
585.6	139.9
585.8	138.7
586.0	137.8
586.2	137.0
586.4	136.0
586.6	135.0
586.8	134.4
587.0	133.2
587.2	132.5
587.4	131.4
587.6	130.4
587.8	129.2
588.0	129.0
588.2	128.5
588.4	127.9
588.6	126.7
588.8	125.6
589.0	124.5
589.2	123.9
589.4	123.5
589.6	122.6
589.8	121.4
590.0	120.7
590.2	119.8
590.4	118.9
590.6	118.1
590.8	117.2
591.0	116.0
591.2	115.5
591.4	114.6
591.6	113.8
591.8	112.9
592.0	112.0
592.2	111.2
592.4	110.7
592.6	110.2
592.8	109.7
593.0	108.7
593.2	107.6
593.4	106.8
593.6	106.2
593.8	105.6
594.0	104.6
594.2	104.2
594.4	103.4
594.6	103.0
594.8	102.5
595.0	101.6
595.2	100.7
595.4	100.4
595.6	99.55
595.8	99.05
596.0	98.09
596.2	97.20
596.4	96.63
596.6	96.25
596.8	95.53
597.0	94.92
597.2	93.99
597.4	93.20
597.6	92.93
597.8	92.67
598.0	92.18
598.2	91.37
598.4	90.24
598.6	89.36
598.8	88.77
599.0	88.35
599.2	87.73
599.4	87.12
599.6	86.27
599.8	85.84
600.0	85.40
600.2	85.18
600.4	84.55
600.6	84.09
600.8	83.25
601.0	82.91
601.2	82.39
601.4	81.99
601.6	81.35
601.8	80.98
602.0	80.46
602.2	80.04
602.4	79.52
602.6	78.87
602.8	78.02
603.0	77.32
603.2	76.49
603.4	75.86
603.6	75.49
603.8	74.99
604.0	74.35
604.2	73.88
604.4	73.47
604.6	73.02
604.8	72.76
605.0	72.28
605.2	71.55
605.4	70.90
605.6	70.34
605.8	69.89
606.0	69.77
606.2	69.20
606.4	68.64
606.6	68.02
606.8	67.76
607.0	67.69
607.2	67.52
607.4	66.67
607.6	65.97
607.8	65.25
608.0	64.67
608.2	64.31
608.4	64.18
608.6	63.70
608.8	63.40
609.0	63.10
609.2	62.39
609.4	62.06
609.6	61.57
609.8	61.12
610.0	60.58
610.2	59.73
610.4	59.21
610.6	59.25
610.8	59.05
611.0	58.92
611.2	58.45
611.4	57.72
611.6	57.13
611.8	56.98
612.0	56.53
612.2	56.08
612.4	55.52
612.6	54.98
612.8	54.57
613.0	54.48
613.2	54.16
613.4	53.75
613.6	53.33
613.8	52.92
614.0	52.78
614.2	52.49
614.4	52.06
614.6	51.20
614.8	50.82
615.0	50.57
615.2	50.37
615.4	50.10
615.6	49.99
615.8	49.49
616.0	49.34
616.2	49.04
616.4	48.45
616.6	47.88
616.8	47.51
617.0	47.27
617.2	47.23
617.4	47.13
617.6	46.84
617.8	46.47
618.0	46.05
618.2	45.75
618.4	45.10
618.6	44.62
618.8	44.21
619.0	43.76
619.2	43.63
619.4	43.37
619.6	43.11
619.8	42.74
620.0	42.24
620.2	41.88
620.4	41.65
620.6	41.52
620.8	41.54
621.0	41.23
621.2	40.92
621.4	40.50
621.6	40.19
621.8	39.91
622.0	39.50
622.2	39.28
622.4	39.27
622.6	38.98
622.8	38.84
623.0	38.33
623.2	37.73
623.4	37.37
623.6	37.18
623.8	37.03
624.0	36.88
624.2	36.74
624.4	36.30
624.6	35.97
624.8	35.63
625.0	35.35
625.2	35.20
625.4	35.25
625.6	34.80
625.8	34.45
626.0	34.10
626.2	33.81
626.4	33.65
626.6	33.48
626.8	33.16
627.0	32.85
627.2	32.70
627.4	32.53
627.6	32.37
627.8	32.23
628.0	31.95
628.2	31.41
628.4	31.01
628.6	30.83
628.8	30.69
629.0	30.65
629.2	30.31
629.4	29.94
629.6	29.66
629.8	29.72
630.0	29.55
630.2	29.49
630.4	29.24
630.6	29.13
630.8	28.81
631.0	28.56
631.2	28.14
631.4	27.85
631.6	27.53
631.8	27.62
632.0	27.31
632.2	27.19
632.4	27.05
632.6	26.88
632.8	26.59
633.0	26.55
633.2	26.17
633.4	26.07
633.6	25.81
633.8	25.60
634.0	25.41
634.2	25.24
634.4	25.01
634.6	25.00
634.8	24.88
635.0	24.82
635.2	24.72
635.4	24.51
635.6	24.21
635.8	23.93
636.0	23.61
636.2	23.53
636.4	23.36
636.6	23.24
636.8	23.07
637.0	22.86
637.2	22.64
637.4	22.62
637.6	22.47
637.8	22.36
638.0	22.19
638.2	22.04
638.4	21.87
638.6	21.73
638.8	21.64
639.0	21.45
639.2	21.35
639.4	21.19
639.6	20.95
639.8	20.86
640.0	20.73
640.2	20.52
640.4	20.31
640.6	20.22
640.8	19.99
641.0	19.89
641.2	19.63
641.4	19.49
641.6	19.22
641.8	19.09
642.0	18.86
642.2	18.76
642.4	18.78
642.6	18.77
642.8	18.66
643.0	18.55
643.2	18.34
643.4	18.18
643.6	18.15
643.8	18.07
644.0	17.97
644.2	17.79
644.4	17.59
644.6	17.45
644.8	17.27
645.0	17.18
645.2	17.02
645.4	16.73
645.6	16.60
645.8	16.65
646.0	16.61
646.2	16.50
646.4	16.34
646.6	16.11
646.8	15.97
647.0	15.93
647.2	15.83
647.4	15.68
647.6	15.61
647.8	15.47
648.0	15.40
648.2	15.34
648.4	15.24
648.6	15.07
648.8	14.98
649.0	14.81
649.2	14.77
649.4	14.68
649.6	14.72
649.8	14.64
650.0	14.48
650.2	14.34
650.4	14.18
650.6	13.96
650.8	13.94
651.0	13.85
651.2	13.67
651.4	13.56
651.6	13.42
651.8	13.33
652.0	13.28
652.2	13.20
652.4	13.12
652.6	12.98
652.8	12.70
653.0	12.61
653.2	12.63
653.4	12.58
653.6	12.53
653.8	12.46
654.0	12.30
654.2	12.20
654.4	12.21
654.6	12.08
654.8	11.92
655.0	11.86
655.2	11.85
655.4	11.81
655.6	11.71
655.8	11.64
656.0	11.58
656.2	11.48
656.4	11.38
656.6	11.40
656.8	11.21
657.0	11.03
657.2	10.91
657.4	10.78
657.6	10.73
657.8	10.77
658.0	10.80
658.2	10.68
658.4	10.57
658.6	10.46
658.8	10.45
659.0	10.31
659.2	10.22
659.4	10.13
659.6	9.956
659.8	9.811
660.0	9.844
660.2	9.739
660.4	9.667
660.6	9.686
660.8	9.594
661.0	9.565
661.2	9.515
661.4	9.393
661.6	9.409
661.8	9.345
662.0	9.375
662.2	9.393
662.4	9.282
662.6	9.136
662.8	9.124
663.0	8.999
663.2	8.945
663.4	8.861
663.6	8.776
663.8	8.706
664.0	8.707
664.2	8.640
664.4	8.610
664.6	8.521
664.8	8.416
665.0	8.363
665.2	8.311
665.4	8.248
665.6	8.203
665.8	8.119
666.0	8.066
666.2	8.010
666.4	7.966
666.6	7.886
666.8	7.720
667.0	7.662
667.2	7.661
667.4	7.716
667.6	7.670
667.8	7.555
668.0	7.419
668.2	7.320
668.4	7.265
668.6	7.312
668.8	7.215
669.0	7.183
669.2	7.162
669.4	7.136
669.6	7.106
669.8	7.092
670.0	6.962
670.2	6.845
670.4	6.754
670.6	6.750
670.8	6.763
671.0	6.833
671.2	6.776
671.4	6.651
671.6	6.553
671.8	6.520
672.0	6.480
672.2	6.443
672.4	6.373
672.6	6.322
672.8	6.316
673.0	6.370
673.2	6.414
673.4	6.359
673.6	6.289
673.8	6.187
674.0	6.111
674.2	5.959
674.4	5.909
674.6	5.850
674.8	5.788
675.0	5.754
675.2	5.793
675.4	5.778
675.6	5.768
675.8	5.791
676.0	5.772
676.2	5.790
676.4	5.686
676.6	5.627
676.8	5.558
677.0	5.518
677.2	5.482
677.4	5.449
677.6	5.304
677.8	5.283
678.0	5.315
678.2	5.296
678.4	5.284
678.6	5.254
678.8	5.194
679.0	5.245
679.2	5.200
679.4	5.098
679.6	5.067
679.8	5.039
680.0	4.983
680.2	4.991
680.4	4.868
680.6	4.793
680.8	4.811
681.0	4.807
681.2	4.816
681.4	4.847
681.6	4.824
681.8	4.813
682.0	4.806
682.2	4.763
682.4	4.665
682.6	4.590
682.8	4.544
683.0	4.520
683.2	4.572
683.4	4.579
683.6	4.577
683.8	4.493
684.0	4.407
684.2	4.351
684.4	4.346
684.6	4.327
684.8	4.364
685.0	4.364
685.2	4.383
685.4	4.429
685.6	4.394
685.8	4.333
686.0	4.268
686.2	4.223
686.4	4.167
686.6	4.167
686.8	4.125
687.0	4.122
687.2	4.073
687.4	4.095
687.6	4.083
687.8	4.106
688.0	4.103
688.2	4.087
688.4	4.036
688.6	4.069
688.8	4.085
689.0	4.129
689.2	4.128
689.4	4.086
689.6	4.051
689.8	4.006
690.0	3.930
690.2	3.944
690.4	3.901
690.6	3.893
690.8	3.890
691.0	3.906
691.2	3.874
691.4	3.875
691.6	3.786
691.8	3.729
692.0	3.712
692.2	3.751
692.4	3.740
692.6	3.727
692.8	3.726
693.0	3.724
693.2	3.795
693.4	3.817
693.6	3.811
693.8	3.720
694.0	3.694
694.2	3.665
694.4	3.667
694.6	3.650
694.8	3.700
695.0	3.684
695.2	3.696
695.4	3.715
695.6	3.713
695.8	3.701
696.0	3.627
696.2	3.548
696.4	3.478
696.6	3.494
696.8	3.541
697.0	3.572
697.2	3.519
697.4	3.470
697.6	3.423
697.8	3.436
698.0	3.461
698.2	3.472
698.4	3.480
698.6	3.498
698.8	3.495
699.0	3.505
699.2	3.510
699.4	3.479
699.6	3.478
699.8	3.507
700.0	3.578

