Sample:	'20211010A(EM)
File name:	G-CDs 0.FDS
Run date:	'18:45:37, 06/10/2023
Operator:	Administrator
Comment:	'

Instrument
Model:	F-4700 FL Spectrophotometer
Serial number:	2019-001
ROM Version:	5J24010 00

Instrument parameters
Measurement type:	Wavelength scan
Scan mode:	Emission
Data mode:	Fluorescence
EX WL:	400.0 nm
EM  Start WL:	420.0 nm
EM  End WL:	800.0 nm
Scan speed:	1200 nm/min
Delay:	0.0 s
EX Slit:	10.0 nm
EM Slit:	10.0 nm
PMT Voltage:	440 V
Response:	0.002 s
Corrected spectra:	Off
Shutter control:	On

Processing performed
Savitsky-Golay smoothed
Smoothing order:	3
Number of points:	7
Number of times:	1

Peak integration
Integration method:	Rectangular
Sensitivity:	1
Threshold:	1.000

Peaks
No.	Start(nm)	Apex(nm)	End(nm)	Height(Data)	Valley(nm)	Valley(Data)
1	420.0	459.0	459.8	63.80	459.8	62.75
2	459.8	549.0	785.8	7754	785.8	6.360

Data points
nm	Data
420.0	15.65
420.2	15.24
420.4	15.01
420.6	14.92
420.8	14.87
421.0	15.05
421.2	15.20
421.4	15.14
421.6	14.95
421.8	14.99
422.0	15.23
422.2	15.40
422.4	15.53
422.6	15.62
422.8	15.53
423.0	15.38
423.2	15.61
423.4	15.72
423.6	15.65
423.8	15.31
424.0	15.11
424.2	14.93
424.4	15.24
424.6	15.45
424.8	15.68
425.0	15.64
425.2	15.60
425.4	15.67
425.6	16.00
425.8	16.04
426.0	16.13
426.2	16.15
426.4	15.97
426.6	16.16
426.8	16.47
427.0	16.56
427.2	16.35
427.4	16.13
427.6	15.88
427.8	16.06
428.0	16.18
428.2	16.46
428.4	16.92
428.6	16.94
428.8	16.94
429.0	16.58
429.2	16.21
429.4	16.37
429.6	16.75
429.8	16.67
430.0	16.72
430.2	16.65
430.4	16.47
430.6	16.67
430.8	16.84
431.0	17.18
431.2	17.51
431.4	17.89
431.6	17.79
431.8	17.77
432.0	17.66
432.2	17.85
432.4	17.75
432.6	17.65
432.8	17.62
433.0	17.64
433.2	17.84
433.4	18.21
433.6	18.28
433.8	18.55
434.0	18.71
434.2	18.70
434.4	18.89
434.6	18.98
434.8	18.98
435.0	19.28
435.2	19.56
435.4	19.85
435.6	20.08
435.8	20.14
436.0	20.23
436.2	20.35
436.4	20.71
436.6	20.72
436.8	20.71
437.0	20.91
437.2	21.43
437.4	21.93
437.6	22.31
437.8	22.23
438.0	22.31
438.2	22.55
438.4	23.15
438.6	23.72
438.8	24.02
439.0	24.36
439.2	24.42
439.4	24.81
439.6	25.01
439.8	25.49
440.0	26.02
440.2	26.79
440.4	27.10
440.6	27.69
440.8	27.07
441.0	27.06
441.2	27.44
441.4	28.10
441.6	28.74
441.8	29.91
442.0	30.37
442.2	30.74
442.4	31.61
442.6	31.85
442.8	31.80
443.0	32.38
443.2	32.54
443.4	32.81
443.6	33.81
443.8	34.31
444.0	34.45
444.2	35.06
444.4	35.14
444.6	36.24
444.8	37.55
445.0	38.72
445.2	39.46
445.4	39.92
445.6	39.85
445.8	40.37
446.0	40.64
446.2	41.00
446.4	41.36
446.6	41.82
446.8	42.18
447.0	43.43
447.2	44.11
447.4	44.60
447.6	44.41
447.8	44.81
448.0	44.96
448.2	45.75
448.4	46.31
448.6	46.56
448.8	46.72
449.0	47.58
449.2	48.62
449.4	49.57
449.6	50.27
449.8	50.39
450.0	51.38
450.2	51.79
450.4	52.57
450.6	52.79
450.8	53.10
451.0	53.30
451.2	53.79
451.4	54.64
451.6	55.27
451.8	55.78
452.0	56.45
452.2	56.35
452.4	56.04
452.6	56.54
452.8	56.12
453.0	56.59
453.2	57.44
453.4	57.72
453.6	58.89
453.8	59.31
454.0	59.09
454.2	58.88
454.4	58.78
454.6	58.73
454.8	59.47
455.0	60.00
455.2	60.57
455.4	60.75
455.6	60.84
455.8	60.63
456.0	60.90
456.2	61.40
456.4	61.14
456.6	61.70
456.8	61.71
457.0	61.05
457.2	61.70
457.4	62.01
457.6	61.89
457.8	62.28
458.0	61.97
458.2	62.11
458.4	62.89
458.6	63.25
458.8	63.72
459.0	63.80
459.2	63.47
459.4	63.37
459.6	62.95
459.8	62.75
460.0	63.31
460.2	63.73
460.4	63.41
460.6	63.13
460.8	63.41
461.0	63.81
461.2	64.82
461.4	65.09
461.6	65.08
461.8	64.84
462.0	64.97
462.2	64.97
462.4	64.90
462.6	65.21
462.8	66.09
463.0	66.47
463.2	66.95
463.4	67.09
463.6	66.89
463.8	67.68
464.0	68.08
464.2	68.52
464.4	68.87
464.6	69.48
464.8	70.32
465.0	71.56
465.2	72.55
465.4	73.46
465.6	73.67
465.8	74.12
466.0	74.11
466.2	74.44
466.4	75.05
466.6	76.03
466.8	77.05
467.0	78.08
467.2	78.96
467.4	80.06
467.6	80.73
467.8	81.50
468.0	82.26
468.2	83.38
468.4	84.53
468.6	85.76
468.8	86.76
469.0	88.02
469.2	89.70
469.4	91.48
469.6	93.03
469.8	94.69
470.0	96.46
470.2	98.40
470.4	100.3
470.6	102.0
470.8	102.7
471.0	103.9
471.2	105.3
471.4	106.8
471.6	108.3
471.8	110.9
472.0	113.4
472.2	116.4
472.4	118.8
472.6	121.0
472.8	123.7
473.0	126.6
473.2	129.1
473.4	130.8
473.6	132.7
473.8	135.0
474.0	138.6
474.2	141.5
474.4	144.6
474.6	147.8
474.8	151.3
475.0	154.6
475.2	157.5
475.4	159.3
475.6	162.3
475.8	165.4
476.0	169.1
476.2	172.9
476.4	176.2
476.6	179.2
476.8	182.5
477.0	186.2
477.2	190.7
477.4	195.4
477.6	199.5
477.8	202.6
478.0	205.2
478.2	209.1
478.4	213.3
478.6	218.5
478.8	221.9
479.0	225.8
479.2	230.0
479.4	234.4
479.6	238.5
479.8	243.0
480.0	246.6
480.2	251.8
480.4	257.6
480.6	263.3
480.8	268.5
481.0	273.7
481.2	278.0
481.4	282.4
481.6	288.3
481.8	293.7
482.0	299.3
482.2	306.5
482.4	311.5
482.6	317.1
482.8	322.6
483.0	326.9
483.2	331.2
483.4	337.8
483.6	344.3
483.8	351.7
484.0	357.4
484.2	363.2
484.4	368.9
484.6	376.1
484.8	383.1
485.0	390.6
485.2	398.7
485.4	405.8
485.6	411.9
485.8	418.5
486.0	424.2
486.2	431.9
486.4	440.8
486.6	448.9
486.8	455.3
487.0	464.8
487.2	474.0
487.4	483.9
487.6	491.2
487.8	498.0
488.0	502.6
488.2	510.4
488.4	519.7
488.6	529.7
488.8	539.2
489.0	549.9
489.2	557.7
489.4	566.2
489.6	575.2
489.8	585.1
490.0	596.8
490.2	609.4
490.4	620.5
490.6	630.2
490.8	639.4
491.0	648.0
491.2	658.9
491.4	670.3
491.6	682.1
491.8	694.0
492.0	706.0
492.2	718.6
492.4	731.5
492.6	744.8
492.8	756.2
493.0	767.6
493.2	777.9
493.4	789.0
493.6	802.6
493.8	818.4
494.0	832.5
494.2	847.1
494.4	860.2
494.6	873.3
494.8	890.5
495.0	905.7
495.2	920.7
495.4	936.0
495.6	949.9
495.8	969.1
496.0	988.8
496.2	1006
496.4	1023
496.6	1038
496.8	1053
497.0	1069
497.2	1085
497.4	1103
497.6	1122
497.8	1141
498.0	1163
498.2	1182
498.4	1200
498.6	1219
498.8	1238
499.0	1259
499.2	1280
499.4	1303
499.6	1325
499.8	1347
500.0	1369
500.2	1391
500.4	1413
500.6	1438
500.8	1461
501.0	1486
501.2	1510
501.4	1533
501.6	1559
501.8	1587
502.0	1614
502.2	1641
502.4	1664
502.6	1688
502.8	1717
503.0	1745
503.2	1772
503.4	1795
503.6	1819
503.8	1844
504.0	1872
504.2	1903
504.4	1933
504.6	1962
504.8	1992
505.0	2022
505.2	2051
505.4	2083
505.6	2114
505.8	2146
506.0	2179
506.2	2211
506.4	2245
506.6	2280
506.8	2309
507.0	2339
507.2	2370
507.4	2400
507.6	2433
507.8	2467
508.0	2495
508.2	2527
508.4	2560
508.6	2597
508.8	2632
509.0	2670
509.2	2705
509.4	2739
509.6	2773
509.8	2812
510.0	2843
510.2	2880
510.4	2915
510.6	2946
510.8	2984
511.0	3024
511.2	3062
511.4	3100
511.6	3131
511.8	3163
512.0	3201
512.2	3242
512.4	3286
512.6	3322
512.8	3357
513.0	3397
513.2	3435
513.4	3469
513.6	3501
513.8	3533
514.0	3573
514.2	3615
514.4	3657
514.6	3693
514.8	3735
515.0	3776
515.2	3815
515.4	3854
515.6	3891
515.8	3929
516.0	3969
516.2	4007
516.4	4044
516.6	4076
516.8	4114
517.0	4157
517.2	4199
517.4	4245
517.6	4285
517.8	4318
518.0	4350
518.2	4384
518.4	4420
518.6	4468
518.8	4511
519.0	4549
519.2	4585
519.4	4620
519.6	4654
519.8	4696
520.0	4732
520.2	4769
520.4	4811
520.6	4851
520.8	4888
521.0	4924
521.2	4959
521.4	4995
521.6	5032
521.8	5072
522.0	5106
522.2	5142
522.4	5181
522.6	5213
522.8	5248
523.0	5282
523.2	5316
523.4	5356
523.6	5397
523.8	5437
524.0	5474
524.2	5501
524.4	5530
524.6	5568
524.8	5603
525.0	5639
525.2	5676
525.4	5705
525.6	5730
525.8	5768
526.0	5801
526.2	5842
526.4	5883
526.6	5920
526.8	5945
527.0	5969
527.2	5997
527.4	6034
527.6	6067
527.8	6105
528.0	6137
528.2	6162
528.4	6194
528.6	6226
528.8	6256
529.0	6289
529.2	6317
529.4	6347
529.6	6369
529.8	6400
530.0	6426
530.2	6458
530.4	6485
530.6	6514
530.8	6533
531.0	6568
531.2	6593
531.4	6628
531.6	6655
531.8	6673
532.0	6690
532.2	6717
532.4	6744
532.6	6772
532.8	6800
533.0	6820
533.2	6840
533.4	6866
533.6	6897
533.8	6919
534.0	6943
534.2	6961
534.4	6979
534.6	6998
534.8	7024
535.0	7043
535.2	7068
535.4	7087
535.6	7109
535.8	7128
536.0	7151
536.2	7169
536.4	7185
536.6	7202
536.8	7223
537.0	7244
537.2	7266
537.4	7289
537.6	7304
537.8	7323
538.0	7340
538.2	7353
538.4	7367
538.6	7376
538.8	7390
539.0	7407
539.2	7421
539.4	7436
539.6	7446
539.8	7452
540.0	7468
540.2	7487
540.4	7509
540.6	7530
540.8	7543
541.0	7550
541.2	7555
541.4	7558
541.6	7564
541.8	7576
542.0	7588
542.2	7602
542.4	7627
542.6	7643
542.8	7652
543.0	7661
543.2	7658
543.4	7662
543.6	7672
543.8	7682
544.0	7694
544.2	7697
544.4	7699
544.6	7697
544.8	7696
545.0	7704
545.2	7710
545.4	7710
545.6	7721
545.8	7725
546.0	7731
546.2	7732
546.4	7729
546.6	7729
546.8	7733
547.0	7743
547.2	7747
547.4	7746
547.6	7742
547.8	7739
548.0	7738
548.2	7739
548.4	7740
548.6	7747
548.8	7746
549.0	7754
549.2	7752
549.4	7745
549.6	7745
549.8	7744
550.0	7744
550.2	7747
550.4	7739
550.6	7730
550.8	7719
551.0	7719
551.2	7717
551.4	7717
551.6	7721
551.8	7719
552.0	7714
552.2	7713
552.4	7699
552.6	7692
552.8	7683
553.0	7679
553.2	7680
553.4	7671
553.6	7664
553.8	7659
554.0	7654
554.2	7653
554.4	7648
554.6	7638
554.8	7628
555.0	7621
555.2	7616
555.4	7609
555.6	7605
555.8	7596
556.0	7584
556.2	7572
556.4	7556
556.6	7542
556.8	7530
557.0	7514
557.2	7503
557.4	7488
557.6	7475
557.8	7463
558.0	7451
558.2	7440
558.4	7432
558.6	7416
558.8	7403
559.0	7389
559.2	7375
559.4	7363
559.6	7357
559.8	7342
560.0	7332
560.2	7318
560.4	7296
560.6	7283
560.8	7271
561.0	7256
561.2	7246
561.4	7237
561.6	7216
561.8	7203
562.0	7187
562.2	7170
562.4	7155
562.6	7145
562.8	7134
563.0	7121
563.2	7104
563.4	7085
563.6	7070
563.8	7051
564.0	7037
564.2	7016
564.4	6998
564.6	6983
564.8	6973
565.0	6953
565.2	6929
565.4	6906
565.6	6887
565.8	6872
566.0	6864
566.2	6851
566.4	6834
566.6	6813
566.8	6783
567.0	6761
567.2	6756
567.4	6743
567.6	6732
567.8	6720
568.0	6696
568.2	6673
568.4	6661
568.6	6642
568.8	6625
569.0	6606
569.2	6587
569.4	6565
569.6	6540
569.8	6518
570.0	6502
570.2	6481
570.4	6471
570.6	6454
570.8	6429
571.0	6404
571.2	6383
571.4	6361
571.6	6345
571.8	6327
572.0	6306
572.2	6290
572.4	6271
572.6	6255
572.8	6242
573.0	6219
573.2	6197
573.4	6179
573.6	6158
573.8	6140
574.0	6122
574.2	6098
574.4	6071
574.6	6045
574.8	6027
575.0	6007
575.2	5989
575.4	5979
575.6	5959
575.8	5937
576.0	5919
576.2	5893
576.4	5867
576.6	5845
576.8	5826
577.0	5805
577.2	5794
577.4	5772
577.6	5750
577.8	5723
578.0	5703
578.2	5678
578.4	5663
578.6	5647
578.8	5635
579.0	5617
579.2	5600
579.4	5573
579.6	5547
579.8	5525
580.0	5501
580.2	5481
580.4	5469
580.6	5452
580.8	5437
581.0	5415
581.2	5392
581.4	5367
581.6	5342
581.8	5322
582.0	5305
582.2	5285
582.4	5273
582.6	5255
582.8	5228
583.0	5205
583.2	5179
583.4	5162
583.6	5141
583.8	5124
584.0	5102
584.2	5082
584.4	5066
584.6	5047
584.8	5018
585.0	4992
585.2	4963
585.4	4951
585.6	4943
585.8	4928
586.0	4910
586.2	4882
586.4	4851
586.6	4829
586.8	4815
587.0	4800
587.2	4786
587.4	4769
587.6	4748
587.8	4728
588.0	4708
588.2	4687
588.4	4664
588.6	4651
588.8	4636
589.0	4615
589.2	4596
589.4	4576
589.6	4556
589.8	4539
590.0	4519
590.2	4494
590.4	4475
590.6	4455
590.8	4439
591.0	4417
591.2	4399
591.4	4384
591.6	4369
591.8	4348
592.0	4329
592.2	4304
592.4	4283
592.6	4266
592.8	4249
593.0	4231
593.2	4217
593.4	4200
593.6	4180
593.8	4164
594.0	4149
594.2	4129
594.4	4112
594.6	4092
594.8	4072
595.0	4053
595.2	4038
595.4	4016
595.6	3997
595.8	3973
596.0	3958
596.2	3939
596.4	3924
596.6	3907
596.8	3893
597.0	3874
597.2	3858
597.4	3839
597.6	3818
597.8	3797
598.0	3780
598.2	3762
598.4	3741
598.6	3728
598.8	3711
599.0	3698
599.2	3677
599.4	3661
599.6	3643
599.8	3627
600.0	3610
600.2	3594
600.4	3569
600.6	3550
600.8	3534
601.0	3518
601.2	3505
601.4	3492
601.6	3474
601.8	3456
602.0	3439
602.2	3425
602.4	3408
602.6	3392
602.8	3376
603.0	3358
603.2	3342
603.4	3326
603.6	3308
603.8	3291
604.0	3275
604.2	3259
604.4	3242
604.6	3225
604.8	3208
605.0	3190
605.2	3175
605.4	3161
605.6	3145
605.8	3129
606.0	3116
606.2	3101
606.4	3087
606.6	3075
606.8	3057
607.0	3039
607.2	3025
607.4	3008
607.6	2995
607.8	2987
608.0	2969
608.2	2950
608.4	2937
608.6	2920
608.8	2908
609.0	2893
609.2	2874
609.4	2855
609.6	2842
609.8	2825
610.0	2810
610.2	2793
610.4	2780
610.6	2768
610.8	2748
611.0	2731
611.2	2716
611.4	2701
611.6	2689
611.8	2677
612.0	2659
612.2	2642
612.4	2626
612.6	2611
612.8	2595
613.0	2582
613.2	2568
613.4	2553
613.6	2539
613.8	2526
614.0	2512
614.2	2503
614.4	2491
614.6	2478
614.8	2466
615.0	2449
615.2	2434
615.4	2422
615.6	2410
615.8	2393
616.0	2382
616.2	2369
616.4	2355
616.6	2341
616.8	2325
617.0	2306
617.2	2297
617.4	2285
617.6	2276
617.8	2263
618.0	2248
618.2	2231
618.4	2218
618.6	2208
618.8	2198
619.0	2185
619.2	2171
619.4	2154
619.6	2139
619.8	2128
620.0	2116
620.2	2106
620.4	2094
620.6	2083
620.8	2073
621.0	2061
621.2	2049
621.4	2039
621.6	2023
621.8	2010
622.0	1998
622.2	1984
622.4	1973
622.6	1962
622.8	1948
623.0	1936
623.2	1924
623.4	1913
623.6	1900
623.8	1887
624.0	1877
624.2	1869
624.4	1857
624.6	1848
624.8	1835
625.0	1823
625.2	1814
625.4	1804
625.6	1789
625.8	1776
626.0	1763
626.2	1754
626.4	1745
626.6	1733
626.8	1721
627.0	1708
627.2	1696
627.4	1686
627.6	1678
627.8	1668
628.0	1661
628.2	1651
628.4	1641
628.6	1630
628.8	1619
629.0	1610
629.2	1599
629.4	1586
629.6	1572
629.8	1563
630.0	1553
630.2	1547
630.4	1540
630.6	1530
630.8	1517
631.0	1505
631.2	1496
631.4	1486
631.6	1477
631.8	1471
632.0	1462
632.2	1451
632.4	1441
632.6	1429
632.8	1419
633.0	1412
633.2	1406
633.4	1396
633.6	1384
633.8	1375
634.0	1369
634.2	1362
634.4	1355
634.6	1344
634.8	1334
635.0	1327
635.2	1321
635.4	1312
635.6	1302
635.8	1292
636.0	1283
636.2	1275
636.4	1270
636.6	1262
636.8	1253
637.0	1245
637.2	1236
637.4	1226
637.6	1217
637.8	1208
638.0	1199
638.2	1191
638.4	1183
638.6	1176
638.8	1171
639.0	1165
639.2	1160
639.4	1152
639.6	1143
639.8	1135
640.0	1126
640.2	1120
640.4	1113
640.6	1104
640.8	1096
641.0	1088
641.2	1082
641.4	1076
641.6	1067
641.8	1058
642.0	1050
642.2	1046
642.4	1042
642.6	1036
642.8	1028
643.0	1020
643.2	1010
643.4	1003
643.6	997.5
643.8	993.4
644.0	985.1
644.2	977.4
644.4	967.6
644.6	963.0
644.8	959.4
645.0	956.3
645.2	949.2
645.4	941.6
645.6	934.3
645.8	928.9
646.0	923.0
646.2	916.6
646.4	909.7
646.6	904.0
646.8	897.8
647.0	890.3
647.2	884.8
647.4	878.8
647.6	873.5
647.8	868.2
648.0	860.5
648.2	852.6
648.4	845.3
648.6	839.5
648.8	835.6
649.0	832.7
649.2	828.2
649.4	823.5
649.6	815.9
649.8	809.3
650.0	802.4
650.2	796.0
650.4	791.1
650.6	787.1
650.8	782.9
651.0	778.2
651.2	771.9
651.4	766.2
651.6	761.7
651.8	756.8
652.0	750.1
652.2	744.2
652.4	736.8
652.6	732.9
652.8	727.3
653.0	722.0
653.2	716.0
653.4	712.7
653.6	707.9
653.8	707.0
654.0	701.8
654.2	695.9
654.4	689.3
654.6	683.6
654.8	677.7
655.0	673.8
655.2	670.8
655.4	667.2
655.6	662.7
655.8	657.2
656.0	651.7
656.2	644.5
656.4	640.7
656.6	637.3
656.8	634.8
657.0	630.4
657.2	625.2
657.4	620.6
657.6	617.1
657.8	613.2
658.0	610.8
658.2	605.4
658.4	599.5
658.6	595.8
658.8	591.3
659.0	586.9
659.2	585.3
659.4	582.7
659.6	576.8
659.8	570.5
660.0	563.9
660.2	560.4
660.4	558.9
660.6	557.8
660.8	552.7
661.0	547.3
661.2	543.0
661.4	541.2
661.6	537.7
661.8	533.8
662.0	529.6
662.2	525.1
662.4	521.4
662.6	517.1
662.8	511.4
663.0	506.6
663.2	503.9
663.4	501.6
663.6	499.4
663.8	495.6
664.0	491.9
664.2	488.2
664.4	486.1
664.6	482.9
664.8	479.7
665.0	474.8
665.2	472.0
665.4	468.8
665.6	466.5
665.8	462.3
666.0	458.1
666.2	453.5
666.4	451.9
666.6	450.1
666.8	447.6
667.0	443.3
667.2	438.5
667.4	433.8
667.6	431.5
667.8	428.5
668.0	426.3
668.2	423.0
668.4	420.1
668.6	416.4
668.8	413.8
669.0	410.8
669.2	408.8
669.4	405.8
669.6	403.5
669.8	399.6
670.0	396.2
670.2	393.1
670.4	390.8
670.6	387.1
670.8	384.4
671.0	381.3
671.2	378.2
671.4	374.8
671.6	372.8
671.8	369.6
672.0	368.1
672.2	364.7
672.4	361.5
672.6	358.8
672.8	355.5
673.0	352.9
673.2	351.9
673.4	348.7
673.6	347.7
673.8	345.0
674.0	340.7
674.2	337.6
674.4	334.9
674.6	332.5
674.8	331.3
675.0	328.9
675.2	326.4
675.4	323.9
675.6	322.1
675.8	320.3
676.0	318.4
676.2	316.5
676.4	313.6
676.6	310.2
676.8	307.0
677.0	304.8
677.2	302.6
677.4	300.0
677.6	297.8
677.8	295.9
678.0	294.2
678.2	293.1
678.4	289.9
678.6	286.8
678.8	283.8
679.0	281.2
679.2	279.3
679.4	277.5
679.6	274.9
679.8	273.0
680.0	271.6
680.2	270.3
680.4	268.3
680.6	266.5
680.8	264.7
681.0	262.6
681.2	260.5
681.4	258.0
681.6	254.9
681.8	253.3
682.0	252.3
682.2	251.5
682.4	249.8
682.6	247.1
682.8	244.4
683.0	243.0
683.2	240.6
683.4	238.2
683.6	236.6
683.8	234.3
684.0	232.2
684.2	231.2
684.4	229.6
684.6	227.8
684.8	227.0
685.0	224.6
685.2	223.1
685.4	220.9
685.6	220.0
685.8	219.0
686.0	217.6
686.2	215.7
686.4	214.9
686.6	212.3
686.8	211.1
687.0	209.4
687.2	207.7
687.4	206.7
687.6	205.3
687.8	204.1
688.0	201.9
688.2	200.2
688.4	198.3
688.6	196.9
688.8	195.2
689.0	194.0
689.2	192.1
689.4	191.1
689.6	190.4
689.8	189.3
690.0	188.6
690.2	186.0
690.4	183.9
690.6	182.1
690.8	180.7
691.0	179.2
691.2	179.0
691.4	177.2
691.6	175.5
691.8	174.8
692.0	173.5
692.2	172.0
692.4	171.1
692.6	170.0
692.8	168.7
693.0	167.4
693.2	165.7
693.4	164.2
693.6	163.3
693.8	163.0
694.0	161.9
694.2	160.4
694.4	159.6
694.6	158.6
694.8	157.8
695.0	156.8
695.2	155.4
695.4	153.3
695.6	151.8
695.8	150.9
696.0	149.8
696.2	149.2
696.4	148.5
696.6	147.3
696.8	147.2
697.0	146.5
697.2	145.2
697.4	144.5
697.6	142.9
697.8	141.5
698.0	140.8
698.2	139.0
698.4	138.0
698.6	137.5
698.8	136.6
699.0	135.4
699.2	135.0
699.4	134.9
699.6	134.2
699.8	133.4
700.0	132.2
700.2	130.5
700.4	129.9
700.6	129.8
700.8	129.3
701.0	128.4
701.2	128.1
701.4	126.7
701.6	125.4
701.8	123.4
702.0	123.2
702.2	122.0
702.4	122.1
702.6	120.6
702.8	119.1
703.0	117.5
703.2	117.4
703.4	116.6
703.6	116.5
703.8	115.4
704.0	114.6
704.2	113.4
704.4	112.2
704.6	111.8
704.8	111.9
705.0	111.6
705.2	111.2
705.4	110.1
705.6	109.6
705.8	109.6
706.0	109.6
706.2	108.9
706.4	107.2
706.6	105.9
706.8	104.1
707.0	103.2
707.2	103.2
707.4	102.6
707.6	101.5
707.8	101.9
708.0	100.9
708.2	99.97
708.4	99.53
708.6	98.02
708.8	97.28
709.0	97.46
709.2	97.32
709.4	96.70
709.6	95.94
709.8	94.29
710.0	93.80
710.2	93.44
710.4	93.59
710.6	92.92
710.8	91.70
711.0	90.84
711.2	90.53
711.4	90.32
711.6	90.42
711.8	89.17
712.0	88.38
712.2	87.60
712.4	86.86
712.6	86.07
712.8	85.43
713.0	84.71
713.2	84.47
713.4	83.31
713.6	82.76
713.8	81.91
714.0	81.02
714.2	80.90
714.4	80.72
714.6	80.19
714.8	79.33
715.0	78.69
715.2	78.27
715.4	78.17
715.6	77.75
715.8	77.04
716.0	75.63
716.2	74.57
716.4	73.90
716.6	73.12
716.8	72.92
717.0	72.88
717.2	73.25
717.4	73.06
717.6	72.44
717.8	71.31
718.0	70.13
718.2	69.23
718.4	69.16
718.6	68.85
718.8	68.67
719.0	68.21
719.2	67.46
719.4	66.86
719.6	66.44
719.8	65.81
720.0	64.98
720.2	64.23
720.4	63.73
720.6	63.10
720.8	62.57
721.0	62.50
721.2	61.96
721.4	61.43
721.6	61.24
721.8	60.43
722.0	59.66
722.2	59.42
722.4	58.97
722.6	58.79
722.8	59.06
723.0	58.62
723.2	57.90
723.4	57.12
723.6	56.28
723.8	55.73
724.0	55.39
724.2	54.78
724.4	54.22
724.6	53.79
724.8	53.56
725.0	52.92
725.2	52.74
725.4	52.76
725.6	52.31
725.8	51.86
726.0	51.53
726.2	51.00
726.4	50.67
726.6	50.92
726.8	50.43
727.0	49.81
727.2	49.06
727.4	48.74
727.6	48.30
727.8	48.13
728.0	47.36
728.2	46.92
728.4	46.25
728.6	46.26
728.8	46.18
729.0	46.17
729.2	45.12
729.4	44.44
729.6	43.67
729.8	43.65
730.0	43.36
730.2	43.26
730.4	42.72
730.6	42.55
730.8	42.44
731.0	42.12
731.2	41.50
731.4	41.07
731.6	40.82
731.8	41.07
732.0	41.00
732.2	39.88
732.4	38.95
732.6	38.41
732.8	37.96
733.0	38.16
733.2	38.31
733.4	38.31
733.6	38.16
733.8	37.76
734.0	37.14
734.2	36.62
734.4	36.38
734.6	36.43
734.8	36.44
735.0	36.00
735.2	35.62
735.4	35.20
735.6	34.67
735.8	34.19
736.0	34.13
736.2	33.79
736.4	33.89
736.6	33.80
736.8	33.46
737.0	32.79
737.2	32.19
737.4	31.76
737.6	31.75
737.8	31.85
738.0	32.18
738.2	32.02
738.4	31.61
738.6	31.34
738.8	30.64
739.0	30.33
739.2	30.41
739.4	30.25
739.6	30.10
739.8	29.95
740.0	29.48
740.2	29.35
740.4	29.24
740.6	28.75
740.8	28.36
741.0	28.09
741.2	28.05
741.4	27.90
741.6	27.69
741.8	27.15
742.0	26.78
742.2	26.64
742.4	26.44
742.6	26.37
742.8	26.36
743.0	26.14
743.2	26.12
743.4	25.94
743.6	25.58
743.8	25.88
744.0	25.98
744.2	25.91
744.4	25.26
744.6	24.58
744.8	24.13
745.0	24.24
745.2	24.33
745.4	24.54
745.6	24.16
745.8	23.74
746.0	23.44
746.2	23.38
746.4	23.17
746.6	23.10
746.8	22.77
747.0	22.21
747.2	22.10
747.4	22.04
747.6	21.92
747.8	21.91
748.0	21.71
748.2	21.53
748.4	21.52
748.6	21.24
748.8	20.64
749.0	20.23
749.2	20.17
749.4	20.33
749.6	20.88
749.8	21.12
750.0	20.91
750.2	20.91
750.4	20.58
750.6	20.20
750.8	20.15
751.0	19.77
751.2	19.38
751.4	19.63
751.6	19.25
751.8	18.98
752.0	18.64
752.2	18.26
752.4	18.11
752.6	18.29
752.8	18.42
753.0	18.64
753.2	18.61
753.4	18.32
753.6	17.88
753.8	17.24
754.0	16.97
754.2	16.80
754.4	16.93
754.6	16.92
754.8	16.62
755.0	16.43
755.2	16.32
755.4	16.14
755.6	15.98
755.8	15.86
756.0	15.73
756.2	15.69
756.4	15.55
756.6	15.65
756.8	15.58
757.0	15.58
757.2	15.44
757.4	15.24
757.6	14.93
757.8	15.13
758.0	15.12
758.2	15.12
758.4	15.02
758.6	14.77
758.8	14.69
759.0	14.86
759.2	14.48
759.4	14.28
759.6	14.09
759.8	13.86
760.0	13.98
760.2	14.17
760.4	13.93
760.6	13.84
760.8	13.69
761.0	13.63
761.2	13.72
761.4	13.63
761.6	13.33
761.8	12.93
762.0	12.65
762.2	12.69
762.4	12.84
762.6	12.89
762.8	12.91
763.0	12.56
763.2	12.29
763.4	12.35
763.6	12.32
763.8	12.30
764.0	12.27
764.2	12.11
764.4	11.93
764.6	11.80
764.8	11.83
765.0	11.66
765.2	11.63
765.4	11.70
765.6	11.67
765.8	11.48
766.0	11.55
766.2	11.55
766.4	11.37
766.6	11.17
766.8	11.05
767.0	10.87
767.2	10.98
767.4	11.06
767.6	10.99
767.8	10.73
768.0	10.57
768.2	10.35
768.4	10.69
768.6	10.76
768.8	10.84
769.0	10.79
769.2	10.56
769.4	10.11
769.6	10.01
769.8	10.02
770.0	9.898
770.2	9.927
770.4	9.896
770.6	9.644
770.8	9.413
771.0	9.411
771.2	9.254
771.4	8.976
771.6	8.873
771.8	8.874
772.0	8.979
772.2	9.155
772.4	9.328
772.6	9.074
772.8	8.597
773.0	8.307
773.2	8.145
773.4	8.272
773.6	8.626
773.8	8.863
774.0	8.813
774.2	8.594
774.4	8.482
774.6	8.360
774.8	8.249
775.0	8.181
775.2	8.116
775.4	7.889
775.6	7.986
775.8	8.078
776.0	7.958
776.2	7.879
776.4	7.803
776.6	7.628
776.8	7.653
777.0	7.936
777.2	8.106
777.4	8.128
777.6	7.982
777.8	7.624
778.0	7.489
778.2	7.446
778.4	7.627
778.6	7.597
778.8	7.502
779.0	7.171
779.2	7.349
779.4	7.438
779.6	7.592
779.8	7.540
780.0	7.248
780.2	6.968
780.4	7.081
780.6	7.102
780.8	7.227
781.0	7.182
781.2	6.988
781.4	7.113
781.6	7.160
781.8	6.988
782.0	6.873
782.2	6.788
782.4	6.679
782.6	6.730
782.8	6.734
783.0	6.655
783.2	6.615
783.4	6.575
783.6	6.754
783.8	6.891
784.0	6.915
784.2	6.870
784.4	6.893
784.6	6.702
784.8	6.877
785.0	6.843
785.2	6.755
785.4	6.561
785.6	6.506
785.8	6.360
786.0	6.373
786.2	6.395
786.4	6.648
786.6	6.807
786.8	6.876
787.0	6.842
787.2	6.710
787.4	6.795
787.6	7.014
787.8	7.055
788.0	6.939
788.2	6.857
788.4	6.853
788.6	6.976
788.8	7.202
789.0	7.155
789.2	6.945
789.4	6.936
789.6	6.907
789.8	6.866
790.0	6.927
790.2	6.948
790.4	6.937
790.6	7.222
790.8	7.420
791.0	7.439
791.2	7.455
791.4	7.339
791.6	7.191
791.8	7.266
792.0	7.341
792.2	7.436
792.4	7.575
792.6	7.422
792.8	7.353
793.0	7.441
793.2	7.463
793.4	7.737
793.6	7.903
793.8	8.053
794.0	8.112
794.2	8.033
794.4	8.020
794.6	7.955
794.8	7.838
795.0	7.917
795.2	7.958
795.4	8.027
795.6	8.379
795.8	8.432
796.0	8.209
796.2	8.206
796.4	8.026
796.6	8.067
796.8	8.326
797.0	8.379
797.2	8.417
797.4	8.719
797.6	8.642
797.8	8.705
798.0	8.718
798.2	8.527
798.4	8.670
798.6	8.767
798.8	8.801
799.0	8.972
799.2	9.031
799.4	9.117
799.6	9.344
799.8	9.439
800.0	9.252

