Sample:	'20211010A(EM)
File name:	B-CDs 1 100uM.FDS
Run date:	'14:46:49, 06/08/2023
Operator:	Administrator
Comment:	'

Instrument
Model:	F-4700 FL Spectrophotometer
Serial number:	2019-001
ROM Version:	5J24010 00

Instrument parameters
Measurement type:	Wavelength scan
Scan mode:	Emission
Data mode:	Fluorescence
EX WL:	350.0 nm
EM  Start WL:	370.0 nm
EM  End WL:	680.0 nm
Scan speed:	1200 nm/min
Delay:	0.0 s
EX Slit:	10.0 nm
EM Slit:	10.0 nm
PMT Voltage:	515 V
Response:	0.002 s
Corrected spectra:	Off
Shutter control:	On

Processing performed
Savitsky-Golay smoothed
Smoothing order:	3
Number of points:	7
Number of times:	1

Peak integration
Integration method:	Rectangular
Sensitivity:	1
Threshold:	1.000

Peaks
No.	Start(nm)	Apex(nm)	End(nm)	Height(Data)	Valley(nm)	Valley(Data)
1	370.0	383.4	384.0	5.879	384.0	4.791
2	384.0	471.2	472.2	2689	472.2	2682
3	472.2	477.4	478.2	2748	478.2	2724
4	478.2	480.0	480.6	2756	480.6	2736
5	480.6	482.6	483.2	2757	483.2	2739
6	483.2	483.8	486.4	2761	486.4	2728
7	486.4	487.4	493.0	2737	493.0	2645
8	493.0	493.6	645.2	2661	645.2	61.05
9	645.2	645.8	653.0	62.66	653.0	46.81
10	653.0	653.6	655.6	50.26	655.6	42.97
11	655.6	656.2	658.4	45.24	658.4	38.18
12	658.4	659.0	666.2	40.67	666.2	30.15
13	666.2	667.0	671.8	31.96	671.8	25.69
14	671.8	672.2	676.0	27.27	676.0	22.06
15	676.0	676.6	680.0	23.76	680.0	19.55

Data points
nm	Data
370.0	2.817
370.2	3.007
370.4	3.105
370.6	3.150
370.8	3.074
371.0	3.420
371.2	3.359
371.4	3.328
371.6	3.228
371.8	3.091
372.0	3.395
372.2	3.608
372.4	3.734
372.6	3.967
372.8	3.828
373.0	3.257
373.2	3.135
373.4	3.061
373.6	3.080
373.8	3.235
374.0	3.296
374.2	3.152
374.4	3.231
374.6	3.529
374.8	3.699
375.0	3.831
375.2	3.699
375.4	3.620
375.6	3.499
375.8	3.371
376.0	3.535
376.2	3.905
376.4	3.982
376.6	3.937
376.8	3.848
377.0	3.454
377.2	3.382
377.4	3.511
377.6	3.282
377.8	3.475
378.0	3.801
378.2	3.623
378.4	4.056
378.6	4.070
378.8	3.809
379.0	3.823
379.2	3.903
379.4	3.923
379.6	4.663
379.8	4.798
380.0	4.620
380.2	4.523
380.4	4.279
380.6	4.373
380.8	4.683
381.0	4.690
381.2	4.692
381.4	4.870
381.6	4.747
381.8	4.686
382.0	4.682
382.2	4.646
382.4	4.630
382.6	4.544
382.8	4.715
383.0	5.115
383.2	5.412
383.4	5.879
383.6	5.704
383.8	5.294
384.0	4.791
384.2	4.860
384.4	5.189
384.6	5.579
384.8	5.509
385.0	5.517
385.2	5.181
385.4	5.493
385.6	5.853
385.8	5.636
386.0	5.738
386.2	5.876
386.4	6.322
386.6	7.105
386.8	7.018
387.0	6.720
387.2	6.669
387.4	6.542
387.6	7.009
387.8	7.751
388.0	7.824
388.2	7.871
388.4	8.231
388.6	8.560
388.8	8.900
389.0	9.495
389.2	9.560
389.4	9.036
389.6	8.772
389.8	9.154
390.0	9.547
390.2	9.995
390.4	10.53
390.6	10.38
390.8	10.54
391.0	11.33
391.2	11.51
391.4	11.44
391.6	11.57
391.8	11.70
392.0	12.05
392.2	12.36
392.4	12.45
392.6	12.41
392.8	13.12
393.0	13.80
393.2	15.01
393.4	15.68
393.6	16.34
393.8	16.93
394.0	17.97
394.2	17.87
394.4	18.22
394.6	17.99
394.8	18.10
395.0	19.18
395.2	20.19
395.4	20.72
395.6	21.16
395.8	21.73
396.0	22.07
396.2	23.06
396.4	24.36
396.6	24.90
396.8	25.91
397.0	26.77
397.2	26.91
397.4	28.56
397.6	30.75
397.8	31.04
398.0	31.63
398.2	31.88
398.4	32.04
398.6	33.18
398.8	34.69
399.0	34.70
399.2	35.34
399.4	36.44
399.6	39.20
399.8	41.34
400.0	43.16
400.2	44.46
400.4	44.79
400.6	46.32
400.8	48.20
401.0	49.68
401.2	50.65
401.4	51.89
401.6	53.70
401.8	57.10
402.0	59.11
402.2	61.76
402.4	63.56
402.6	65.23
402.8	68.27
403.0	70.66
403.2	71.58
403.4	72.83
403.6	74.87
403.8	76.83
404.0	80.17
404.2	84.20
404.4	87.12
404.6	89.61
404.8	91.94
405.0	94.66
405.2	97.60
405.4	100.9
405.6	103.8
405.8	107.3
406.0	110.0
406.2	113.1
406.4	116.9
406.6	120.5
406.8	124.5
407.0	128.6
407.2	132.1
407.4	134.6
407.6	139.3
407.8	145.1
408.0	149.6
408.2	154.2
408.4	158.6
408.6	162.6
408.8	166.8
409.0	172.5
409.2	177.8
409.4	183.2
409.6	189.4
409.8	197.6
410.0	203.8
410.2	208.4
410.4	213.9
410.6	217.1
410.8	221.0
411.0	229.7
411.2	237.1
411.4	243.0
411.6	248.5
411.8	254.0
412.0	258.4
412.2	265.9
412.4	274.0
412.6	284.0
412.8	292.9
413.0	299.0
413.2	304.0
413.4	307.6
413.6	312.5
413.8	319.7
414.0	331.4
414.2	338.6
414.4	347.7
414.6	357.0
414.8	363.5
415.0	372.0
415.2	380.4
415.4	385.8
415.6	392.2
415.8	402.2
416.0	409.6
416.2	422.0
416.4	432.1
416.6	441.9
416.8	453.2
417.0	462.4
417.2	472.4
417.4	482.8
417.6	490.2
417.8	497.6
418.0	505.5
418.2	512.8
418.4	521.7
418.6	532.6
418.8	540.4
419.0	551.7
419.2	564.6
419.4	577.5
419.6	587.0
419.8	597.3
420.0	605.1
420.2	615.9
420.4	629.4
420.6	641.8
420.8	654.6
421.0	669.5
421.2	683.0
421.4	695.5
421.6	704.4
421.8	715.1
422.0	723.8
422.2	734.0
422.4	743.4
422.6	753.3
422.8	761.0
423.0	772.5
423.2	787.1
423.4	800.1
423.6	811.5
423.8	828.4
424.0	837.3
424.2	848.8
424.4	862.0
424.6	878.1
424.8	892.8
425.0	910.7
425.2	915.3
425.4	924.3
425.6	932.3
425.8	948.0
426.0	963.5
426.2	979.8
426.4	989.3
426.6	1001
426.8	1012
427.0	1024
427.2	1037
427.4	1051
427.6	1062
427.8	1070
428.0	1078
428.2	1087
428.4	1101
428.6	1113
428.8	1124
429.0	1134
429.2	1150
429.4	1174
429.6	1190
429.8	1204
430.0	1214
430.2	1223
430.4	1234
430.6	1248
430.8	1259
431.0	1272
431.2	1282
431.4	1290
431.6	1295
431.8	1301
432.0	1315
432.2	1330
432.4	1340
432.6	1348
432.8	1357
433.0	1370
433.2	1384
433.4	1397
433.6	1409
433.8	1423
434.0	1430
434.2	1446
434.4	1461
434.6	1470
434.8	1483
435.0	1490
435.2	1492
435.4	1504
435.6	1518
435.8	1530
436.0	1541
436.2	1553
436.4	1563
436.6	1580
436.8	1591
437.0	1601
437.2	1610
437.4	1619
437.6	1630
437.8	1639
438.0	1640
438.2	1646
438.4	1652
438.6	1661
438.8	1682
439.0	1695
439.2	1702
439.4	1712
439.6	1723
439.8	1734
440.0	1745
440.2	1755
440.4	1753
440.6	1756
440.8	1763
441.0	1773
441.2	1780
441.4	1800
441.6	1805
441.8	1813
442.0	1820
442.2	1828
442.4	1833
442.6	1846
442.8	1848
443.0	1855
443.2	1868
443.4	1882
443.6	1891
443.8	1895
444.0	1899
444.2	1905
444.4	1917
444.6	1932
444.8	1935
445.0	1935
445.2	1944
445.4	1947
445.6	1964
445.8	1980
446.0	1987
446.2	1994
446.4	2003
446.6	2000
446.8	2007
447.0	2005
447.2	2009
447.4	2021
447.6	2036
447.8	2043
448.0	2051
448.2	2049
448.4	2051
448.6	2060
448.8	2069
449.0	2075
449.2	2082
449.4	2094
449.6	2105
449.8	2111
450.0	2114
450.2	2119
450.4	2124
450.6	2140
450.8	2151
451.0	2150
451.2	2151
451.4	2162
451.6	2169
451.8	2182
452.0	2188
452.2	2184
452.4	2183
452.6	2195
452.8	2207
453.0	2228
453.2	2237
453.4	2239
453.6	2233
453.8	2237
454.0	2242
454.2	2252
454.4	2257
454.6	2261
454.8	2267
455.0	2275
455.2	2287
455.4	2296
455.6	2304
455.8	2300
456.0	2302
456.2	2313
456.4	2321
456.6	2325
456.8	2324
457.0	2318
457.2	2321
457.4	2339
457.6	2350
457.8	2363
458.0	2364
458.2	2372
458.4	2384
458.6	2389
458.8	2394
459.0	2394
459.2	2390
459.4	2394
459.6	2407
459.8	2414
460.0	2422
460.2	2434
460.4	2446
460.6	2450
460.8	2457
461.0	2457
461.2	2461
461.4	2461
461.6	2469
461.8	2474
462.0	2483
462.2	2486
462.4	2490
462.6	2494
462.8	2509
463.0	2533
463.2	2541
463.4	2540
463.6	2532
463.8	2532
464.0	2533
464.2	2541
464.4	2544
464.6	2551
464.8	2555
465.0	2561
465.2	2565
465.4	2576
465.6	2583
465.8	2588
466.0	2591
466.2	2592
466.4	2589
466.6	2595
466.8	2591
467.0	2594
467.2	2599
467.4	2609
467.6	2615
467.8	2623
468.0	2624
468.2	2626
468.4	2626
468.6	2630
468.8	2637
469.0	2644
469.2	2646
469.4	2652
469.6	2654
469.8	2646
470.0	2646
470.2	2648
470.4	2656
470.6	2672
470.8	2687
471.0	2688
471.2	2689
471.4	2688
471.6	2688
471.8	2686
472.0	2685
472.2	2682
472.4	2685
472.6	2695
472.8	2692
473.0	2695
473.2	2694
473.4	2692
473.6	2697
473.8	2703
474.0	2697
474.2	2706
474.4	2707
474.6	2711
474.8	2720
475.0	2718
475.2	2717
475.4	2717
475.6	2717
475.8	2722
476.0	2728
476.2	2731
476.4	2731
476.6	2733
476.8	2740
477.0	2742
477.2	2744
477.4	2748
477.6	2742
477.8	2741
478.0	2730
478.2	2724
478.4	2726
478.6	2730
478.8	2740
479.0	2748
479.2	2745
479.4	2746
479.6	2752
479.8	2751
480.0	2756
480.2	2749
480.4	2738
480.6	2736
480.8	2739
481.0	2740
481.2	2748
481.4	2755
481.6	2749
481.8	2750
482.0	2745
482.2	2748
482.4	2747
482.6	2757
482.8	2749
483.0	2744
483.2	2739
483.4	2747
483.6	2745
483.8	2761
484.0	2758
484.2	2748
484.4	2747
484.6	2743
484.8	2741
485.0	2753
485.2	2753
485.4	2746
485.6	2755
485.8	2741
486.0	2733
486.2	2734
486.4	2728
486.6	2733
486.8	2739
487.0	2729
487.2	2735
487.4	2737
487.6	2730
487.8	2736
488.0	2734
488.2	2730
488.4	2734
488.6	2732
488.8	2721
489.0	2712
489.2	2711
489.4	2716
489.6	2714
489.8	2712
490.0	2698
490.2	2698
490.4	2695
490.6	2701
490.8	2700
491.0	2698
491.2	2689
491.4	2688
491.6	2681
491.8	2676
492.0	2674
492.2	2666
492.4	2661
492.6	2652
492.8	2648
493.0	2645
493.2	2652
493.4	2657
493.6	2661
493.8	2660
494.0	2653
494.2	2643
494.4	2638
494.6	2628
494.8	2620
495.0	2617
495.2	2618
495.4	2618
495.6	2616
495.8	2601
496.0	2587
496.2	2578
496.4	2573
496.6	2577
496.8	2579
497.0	2572
497.2	2560
497.4	2555
497.6	2547
497.8	2551
498.0	2550
498.2	2538
498.4	2528
498.6	2527
498.8	2516
499.0	2509
499.2	2503
499.4	2499
499.6	2498
499.8	2495
500.0	2485
500.2	2465
500.4	2454
500.6	2449
500.8	2451
501.0	2447
501.2	2447
501.4	2433
501.6	2425
501.8	2415
502.0	2416
502.2	2406
502.4	2404
502.6	2396
502.8	2395
503.0	2390
503.2	2380
503.4	2368
503.6	2358
503.8	2356
504.0	2355
504.2	2354
504.4	2351
504.6	2342
504.8	2331
505.0	2325
505.2	2319
505.4	2320
505.6	2323
505.8	2312
506.0	2297
506.2	2282
506.4	2274
506.6	2272
506.8	2271
507.0	2258
507.2	2236
507.4	2226
507.6	2223
507.8	2226
508.0	2227
508.2	2221
508.4	2210
508.6	2206
508.8	2198
509.0	2194
509.2	2183
509.4	2175
509.6	2169
509.8	2165
510.0	2151
510.2	2139
510.4	2125
510.6	2119
510.8	2116
511.0	2119
511.2	2113
511.4	2105
511.6	2098
511.8	2092
512.0	2089
512.2	2090
512.4	2084
512.6	2068
512.8	2055
513.0	2044
513.2	2040
513.4	2031
513.6	2024
513.8	2014
514.0	2009
514.2	2009
514.4	2004
514.6	1989
514.8	1981
515.0	1974
515.2	1965
515.4	1953
515.6	1939
515.8	1925
516.0	1925
516.2	1926
516.4	1930
516.6	1924
516.8	1912
517.0	1903
517.2	1893
517.4	1878
517.6	1874
517.8	1867
518.0	1857
518.2	1854
518.4	1840
518.6	1830
518.8	1830
519.0	1832
519.2	1828
519.4	1825
519.6	1811
519.8	1801
520.0	1797
520.2	1791
520.4	1778
520.6	1771
520.8	1769
521.0	1757
521.2	1756
521.4	1749
521.6	1739
521.8	1743
522.0	1745
522.2	1736
522.4	1729
522.6	1720
522.8	1707
523.0	1706
523.2	1693
523.4	1688
523.6	1686
523.8	1683
524.0	1680
524.2	1677
524.4	1660
524.6	1651
524.8	1645
525.0	1636
525.2	1629
525.4	1617
525.6	1609
525.8	1601
526.0	1595
526.2	1595
526.4	1587
526.6	1583
526.8	1583
527.0	1584
527.2	1581
527.4	1575
527.6	1558
527.8	1544
528.0	1531
528.2	1525
528.4	1521
528.6	1519
528.8	1517
529.0	1519
529.2	1517
529.4	1511
529.6	1496
529.8	1486
530.0	1477
530.2	1471
530.4	1463
530.6	1459
530.8	1449
531.0	1440
531.2	1436
531.4	1434
531.6	1433
531.8	1432
532.0	1425
532.2	1416
532.4	1411
532.6	1398
532.8	1390
533.0	1385
533.2	1377
533.4	1369
533.6	1369
533.8	1363
534.0	1362
534.2	1365
534.4	1355
534.6	1342
534.8	1336
535.0	1330
535.2	1320
535.4	1315
535.6	1304
535.8	1294
536.0	1294
536.2	1292
536.4	1286
536.6	1281
536.8	1277
537.0	1269
537.2	1268
537.4	1268
537.6	1261
537.8	1256
538.0	1249
538.2	1237
538.4	1235
538.6	1230
538.8	1222
539.0	1217
539.2	1209
539.4	1201
539.6	1200
539.8	1191
540.0	1182
540.2	1179
540.4	1177
540.6	1177
540.8	1175
541.0	1170
541.2	1165
541.4	1162
541.6	1160
541.8	1150
542.0	1140
542.2	1129
542.4	1125
542.6	1122
542.8	1123
543.0	1118
543.2	1112
543.4	1102
543.6	1098
543.8	1091
544.0	1091
544.2	1089
544.4	1079
544.6	1075
544.8	1068
545.0	1061
545.2	1061
545.4	1056
545.6	1046
545.8	1041
546.0	1034
546.2	1028
546.4	1024
546.6	1019
546.8	1019
547.0	1015
547.2	1012
547.4	1007
547.6	999.6
547.8	991.4
548.0	986.1
548.2	980.6
548.4	974.4
548.6	971.6
548.8	964.6
549.0	961.3
549.2	964.4
549.4	963.1
549.6	956.7
549.8	948.6
550.0	938.5
550.2	929.5
550.4	926.4
550.6	917.4
550.8	916.6
551.0	913.9
551.2	912.1
551.4	909.6
551.6	906.1
551.8	902.4
552.0	901.7
552.2	895.8
552.4	885.7
552.6	878.5
552.8	873.6
553.0	869.8
553.2	867.3
553.4	856.0
553.6	850.5
553.8	847.1
554.0	844.5
554.2	840.7
554.4	839.0
554.6	832.2
554.8	833.7
555.0	832.7
555.2	823.6
555.4	815.7
555.6	810.7
555.8	808.6
556.0	808.2
556.2	804.2
556.4	797.0
556.6	794.6
556.8	792.1
557.0	794.8
557.2	792.4
557.4	785.7
557.6	778.8
557.8	770.9
558.0	766.3
558.2	769.3
558.4	763.6
558.6	758.5
558.8	752.8
559.0	748.5
559.2	746.6
559.4	746.1
559.6	740.0
559.8	733.0
560.0	727.0
560.2	721.0
560.4	718.2
560.6	715.0
560.8	717.3
561.0	716.9
561.2	716.5
561.4	711.3
561.6	705.6
561.8	698.5
562.0	698.4
562.2	696.9
562.4	694.1
562.6	689.9
562.8	683.9
563.0	677.7
563.2	672.5
563.4	665.5
563.6	662.5
563.8	659.3
564.0	654.8
564.2	651.9
564.4	646.6
564.6	643.8
564.8	645.7
565.0	645.1
565.2	640.0
565.4	639.3
565.6	635.1
565.8	632.2
566.0	628.6
566.2	625.6
566.4	620.4
566.6	620.6
566.8	616.2
567.0	613.6
567.2	607.4
567.4	604.7
567.6	597.7
567.8	595.8
568.0	590.8
568.2	589.6
568.4	584.6
568.6	583.2
568.8	578.4
569.0	576.2
569.2	572.5
569.4	569.5
569.6	566.3
569.8	565.3
570.0	559.8
570.2	556.9
570.4	552.5
570.6	549.6
570.8	551.8
571.0	553.7
571.2	551.4
571.4	550.5
571.6	544.9
571.8	541.3
572.0	537.4
572.2	535.0
572.4	532.4
572.6	528.4
572.8	524.1
573.0	522.0
573.2	517.2
573.4	517.8
573.6	517.7
573.8	515.4
574.0	512.2
574.2	508.7
574.4	501.0
574.6	497.3
574.8	492.7
575.0	487.3
575.2	488.0
575.4	488.7
575.6	485.7
575.8	486.3
576.0	481.3
576.2	478.0
576.4	475.3
576.6	472.3
576.8	468.6
577.0	469.9
577.2	470.4
577.4	472.3
577.6	469.1
577.8	466.5
578.0	461.7
578.2	458.9
578.4	458.0
578.6	454.7
578.8	450.5
579.0	445.4
579.2	442.4
579.4	438.6
579.6	436.5
579.8	435.9
580.0	432.6
580.2	425.8
580.4	423.3
580.6	425.0
580.8	424.0
581.0	427.5
581.2	426.1
581.4	419.7
581.6	414.3
581.8	414.3
582.0	408.2
582.2	404.3
582.4	400.7
582.6	400.2
582.8	401.1
583.0	403.7
583.2	401.7
583.4	395.8
583.6	390.0
583.8	389.0
584.0	389.0
584.2	387.1
584.4	387.1
584.6	383.8
584.8	380.2
585.0	380.2
585.2	377.7
585.4	375.2
585.6	374.6
585.8	370.2
586.0	367.9
586.2	369.2
586.4	368.1
586.6	367.9
586.8	365.3
587.0	358.6
587.2	354.8
587.4	355.3
587.6	354.1
587.8	351.8
588.0	351.0
588.2	346.9
588.4	344.8
588.6	347.0
588.8	345.0
589.0	344.7
589.2	343.6
589.4	339.8
589.6	337.7
589.8	336.2
590.0	331.3
590.2	329.3
590.4	325.2
590.6	323.5
590.8	324.9
591.0	324.1
591.2	321.7
591.4	319.2
591.6	315.5
591.8	314.3
592.0	312.2
592.2	310.2
592.4	309.9
592.6	307.9
592.8	307.1
593.0	306.0
593.2	302.6
593.4	300.6
593.6	302.1
593.8	300.5
594.0	301.9
594.2	301.1
594.4	298.6
594.6	295.9
594.8	292.4
595.0	287.6
595.2	283.9
595.4	281.9
595.6	281.5
595.8	284.4
596.0	284.1
596.2	282.8
596.4	279.7
596.6	275.8
596.8	273.0
597.0	273.8
597.2	271.7
597.4	269.3
597.6	265.9
597.8	262.2
598.0	260.2
598.2	262.0
598.4	261.2
598.6	261.8
598.8	259.5
599.0	260.7
599.2	260.5
599.4	260.5
599.6	256.0
599.8	252.2
600.0	248.0
600.2	247.1
600.4	245.4
600.6	246.3
600.8	245.3
601.0	243.1
601.2	242.9
601.4	241.5
601.6	240.7
601.8	239.6
602.0	237.7
602.2	235.3
602.4	234.9
602.6	234.2
602.8	234.3
603.0	233.0
603.2	231.3
603.4	230.1
603.6	228.5
603.8	226.7
604.0	225.5
604.2	223.7
604.4	221.1
604.6	219.2
604.8	218.4
605.0	216.9
605.2	217.4
605.4	216.2
605.6	213.4
605.8	209.9
606.0	207.7
606.2	207.6
606.4	209.9
606.6	213.1
606.8	211.4
607.0	208.8
607.2	206.3
607.4	204.1
607.6	202.9
607.8	202.5
608.0	198.3
608.2	196.9
608.4	197.6
608.6	195.8
608.8	196.8
609.0	195.1
609.2	192.4
609.4	192.5
609.6	192.9
609.8	190.9
610.0	189.2
610.2	187.2
610.4	185.3
610.6	185.2
610.8	186.4
611.0	186.2
611.2	183.1
611.4	181.6
611.6	178.9
611.8	176.7
612.0	178.4
612.2	178.3
612.4	177.4
612.6	175.2
612.8	173.9
613.0	172.7
613.2	171.6
613.4	170.6
613.6	170.3
613.8	168.2
614.0	168.9
614.2	167.7
614.4	164.7
614.6	163.0
614.8	160.7
615.0	159.0
615.2	160.1
615.4	161.1
615.6	161.2
615.8	160.7
616.0	158.7
616.2	156.4
616.4	155.6
616.6	155.6
616.8	155.4
617.0	153.7
617.2	151.1
617.4	148.7
617.6	148.4
617.8	151.2
618.0	153.2
618.2	152.3
618.4	150.9
618.6	147.8
618.8	146.0
619.0	145.6
619.2	144.3
619.4	142.3
619.6	142.0
619.8	140.6
620.0	140.9
620.2	140.8
620.4	140.9
620.6	139.0
620.8	138.2
621.0	136.0
621.2	135.2
621.4	133.9
621.6	132.2
621.8	131.6
622.0	131.3
622.2	130.3
622.4	130.0
622.6	130.5
622.8	130.9
623.0	130.4
623.2	128.2
623.4	125.0
623.6	122.6
623.8	122.7
624.0	123.7
624.2	121.7
624.4	120.7
624.6	119.3
624.8	119.9
625.0	119.3
625.2	119.6
625.4	117.8
625.6	116.8
625.8	115.6
626.0	116.2
626.2	114.4
626.4	115.8
626.6	115.9
626.8	116.0
627.0	113.8
627.2	112.5
627.4	111.0
627.6	111.2
627.8	109.8
628.0	109.0
628.2	107.5
628.4	106.8
628.6	106.2
628.8	107.6
629.0	107.4
629.2	107.5
629.4	106.7
629.6	104.9
629.8	101.9
630.0	100.6
630.2	99.53
630.4	98.37
630.6	99.47
630.8	98.45
631.0	98.83
631.2	97.86
631.4	97.38
631.6	95.87
631.8	96.92
632.0	95.78
632.2	97.00
632.4	96.60
632.6	95.09
632.8	92.97
633.0	93.01
633.2	93.72
633.4	94.85
633.6	94.27
633.8	93.00
634.0	90.88
634.2	89.80
634.4	89.65
634.6	89.97
634.8	88.08
635.0	87.18
635.2	86.51
635.4	84.83
635.6	83.81
635.8	83.64
636.0	82.16
636.2	82.14
636.4	83.75
636.6	83.39
636.8	82.63
637.0	82.23
637.2	81.82
637.4	80.32
637.6	79.51
637.8	78.26
638.0	77.94
638.2	78.65
638.4	79.56
638.6	79.04
638.8	77.57
639.0	76.30
639.2	75.48
639.4	75.55
639.6	75.53
639.8	75.83
640.0	75.58
640.2	74.11
640.4	72.50
640.6	72.33
640.8	72.37
641.0	71.30
641.2	71.76
641.4	70.73
641.6	69.59
641.8	70.37
642.0	70.35
642.2	68.98
642.4	68.49
642.6	67.54
642.8	66.54
643.0	66.72
643.2	65.88
643.4	65.83
643.6	64.85
643.8	64.73
644.0	65.54
644.2	65.39
644.4	64.86
644.6	64.38
644.8	62.19
645.0	61.30
645.2	61.05
645.4	61.47
645.6	62.51
645.8	62.66
646.0	61.93
646.2	61.78
646.4	61.37
646.6	61.64
646.8	60.97
647.0	60.20
647.2	59.37
647.4	58.30
647.6	57.37
647.8	57.41
648.0	57.77
648.2	58.03
648.4	58.40
648.6	56.48
648.8	55.12
649.0	55.24
649.2	55.01
649.4	53.69
649.6	54.22
649.8	52.96
650.0	53.24
650.2	54.36
650.4	53.64
650.6	51.94
650.8	51.47
651.0	50.90
651.2	50.67
651.4	50.29
651.6	49.20
651.8	48.13
652.0	48.53
652.2	49.22
652.4	49.78
652.6	48.46
652.8	47.25
653.0	46.81
653.2	47.83
653.4	49.35
653.6	50.26
653.8	48.47
654.0	48.21
654.2	47.64
654.4	46.92
654.6	47.55
654.8	46.50
655.0	45.04
655.2	44.62
655.4	43.33
655.6	42.97
655.8	44.10
656.0	44.56
656.2	45.24
656.4	44.80
656.6	43.37
656.8	43.98
657.0	43.30
657.2	42.85
657.4	42.13
657.6	41.55
657.8	40.68
658.0	40.10
658.2	38.38
658.4	38.18
658.6	38.20
658.8	39.61
659.0	40.67
659.2	39.96
659.4	39.46
659.6	39.04
659.8	38.38
660.0	38.74
660.2	39.31
660.4	39.88
660.6	39.77
660.8	38.25
661.0	36.63
661.2	36.10
661.4	36.68
661.6	37.32
661.8	36.88
662.0	35.89
662.2	34.75
662.4	34.94
662.6	35.65
662.8	36.48
663.0	36.33
663.2	35.55
663.4	34.57
663.6	33.91
663.8	33.29
664.0	33.44
664.2	32.93
664.4	33.02
664.6	32.84
664.8	32.58
665.0	32.60
665.2	32.73
665.4	32.16
665.6	31.94
665.8	31.03
666.0	30.18
666.2	30.15
666.4	30.67
666.6	31.26
666.8	31.73
667.0	31.96
667.2	31.71
667.4	30.68
667.6	29.87
667.8	29.15
668.0	28.89
668.2	28.61
668.4	28.79
668.6	28.23
668.8	28.06
669.0	27.71
669.2	27.68
669.4	27.40
669.6	27.42
669.8	27.78
670.0	28.30
670.2	28.08
670.4	27.55
670.6	26.62
670.8	26.15
671.0	26.58
671.2	26.27
671.4	25.72
671.6	26.05
671.8	25.69
672.0	25.90
672.2	27.27
672.4	26.57
672.6	26.57
672.8	26.57
673.0	25.09
673.2	24.49
673.4	25.16
673.6	24.48
673.8	24.87
674.0	24.96
674.2	24.24
674.4	24.57
674.6	24.53
674.8	23.48
675.0	23.65
675.2	23.79
675.4	23.07
675.6	23.14
675.8	22.53
676.0	22.06
676.2	23.13
676.4	23.72
676.6	23.76
676.8	23.63
677.0	22.79
677.2	22.46
677.4	22.39
677.6	21.82
677.8	21.87
678.0	21.58
678.2	20.74
678.4	20.60
678.6	20.81
678.8	20.89
679.0	21.71
679.2	21.38
679.4	20.43
679.6	19.31
679.8	18.81
680.0	19.55

