Sample:	'20211010A(EM)
File name:	B-CDs 6.FDS
Run date:	'15:15:21, 06/08/2023
Operator:	Administrator
Comment:	'

Instrument
Model:	F-4700 FL Spectrophotometer
Serial number:	2019-001
ROM Version:	5J24010 00

Instrument parameters
Measurement type:	Wavelength scan
Scan mode:	Emission
Data mode:	Fluorescence
EX WL:	350.0 nm
EM  Start WL:	370.0 nm
EM  End WL:	680.0 nm
Scan speed:	1200 nm/min
Delay:	0.0 s
EX Slit:	10.0 nm
EM Slit:	10.0 nm
PMT Voltage:	470 V
Response:	0.002 s
Corrected spectra:	Off
Shutter control:	On

Processing performed
Savitsky-Golay smoothed
Smoothing order:	3
Number of points:	7
Number of times:	1

Peak integration
Integration method:	Rectangular
Sensitivity:	1
Threshold:	1.000

Peaks
No.	Start(nm)	Apex(nm)	End(nm)	Height(Data)	Valley(nm)	Valley(Data)
1	370.0	471.6	472.4	1658	472.4	1646
2	472.4	476.4	477.0	1680	477.0	1674
3	477.0	478.0	479.2	1686	479.2	1676
4	479.2	480.2	481.8	1687	481.8	1680
5	481.8	482.4	484.4	1691	484.4	1665
6	484.4	485.8	652.8	1677	652.8	24.74
7	652.8	653.6	658.4	26.14	658.4	20.18
8	658.4	659.8	680.0	21.46	680.0	10.65

Data points
nm	Data
370.0	2.080
370.2	2.077
370.4	2.077
370.6	2.091
370.8	2.165
371.0	2.227
371.2	2.350
371.4	2.193
371.6	2.089
371.8	1.961
372.0	1.889
372.2	2.087
372.4	2.181
372.6	2.132
372.8	2.213
373.0	2.159
373.2	2.015
373.4	2.123
373.6	2.062
373.8	2.086
374.0	2.228
374.2	2.054
374.4	2.008
374.6	2.015
374.8	2.069
375.0	2.113
375.2	2.199
375.4	2.229
375.6	2.274
375.8	2.225
376.0	2.440
376.2	2.309
376.4	2.275
376.6	2.342
376.8	2.388
377.0	2.436
377.2	2.656
377.4	2.513
377.6	2.433
377.8	2.358
378.0	2.396
378.2	2.462
378.4	2.440
378.6	2.362
378.8	2.119
379.0	2.112
379.2	2.211
379.4	2.387
379.6	2.484
379.8	2.560
380.0	2.455
380.2	2.568
380.4	2.533
380.6	2.547
380.8	2.510
381.0	2.439
381.2	2.453
381.4	2.433
381.6	2.431
381.8	2.612
382.0	2.607
382.2	2.618
382.4	2.724
382.6	2.863
382.8	3.006
383.0	3.055
383.2	2.715
383.4	2.443
383.6	2.439
383.8	2.531
384.0	2.681
384.2	2.814
384.4	2.655
384.6	2.777
384.8	2.911
385.0	2.909
385.2	2.986
385.4	3.016
385.6	2.859
385.8	2.880
386.0	3.017
386.2	3.079
386.4	3.291
386.6	3.374
386.8	3.431
387.0	3.431
387.2	3.562
387.4	3.539
387.6	3.370
387.8	3.199
388.0	3.177
388.2	3.275
388.4	3.373
388.6	3.428
388.8	3.361
389.0	3.561
389.2	3.742
389.4	3.867
389.6	3.967
389.8	3.853
390.0	3.983
390.2	4.172
390.4	4.353
390.6	4.158
390.8	4.070
391.0	4.060
391.2	4.266
391.4	4.419
391.6	4.732
391.8	4.888
392.0	5.062
392.2	5.254
392.4	5.340
392.6	5.307
392.8	5.333
393.0	5.405
393.2	5.596
393.4	5.769
393.6	6.065
393.8	6.297
394.0	6.799
394.2	6.976
394.4	7.191
394.6	7.197
394.8	7.436
395.0	7.406
395.2	7.802
395.4	7.772
395.6	7.905
395.8	7.998
396.0	8.535
396.2	8.656
396.4	9.196
396.6	9.496
396.8	9.755
397.0	9.934
397.2	10.40
397.4	10.71
397.6	11.13
397.8	11.23
398.0	11.29
398.2	11.62
398.4	12.32
398.6	13.43
398.8	14.24
399.0	14.63
399.2	14.78
399.4	15.15
399.6	15.53
399.8	16.49
400.0	17.44
400.2	17.83
400.4	17.88
400.6	18.29
400.8	18.68
401.0	19.91
401.2	21.22
401.4	22.07
401.6	22.91
401.8	23.84
402.0	24.49
402.2	25.76
402.4	26.47
402.6	27.51
402.8	28.82
403.0	30.47
403.2	31.33
403.4	32.87
403.6	33.28
403.8	33.86
404.0	34.97
404.2	36.17
404.4	37.37
404.6	39.15
404.8	40.52
405.0	41.94
405.2	43.88
405.4	45.56
405.6	47.71
405.8	49.75
406.0	51.85
406.2	53.17
406.4	55.02
406.6	56.64
406.8	58.16
407.0	59.93
407.2	61.65
407.4	63.64
407.6	66.04
407.8	68.07
408.0	70.96
408.2	73.68
408.4	77.37
408.6	81.67
408.8	83.23
409.0	84.89
409.2	86.34
409.4	87.03
409.6	90.93
409.8	95.52
410.0	98.40
410.2	101.8
410.4	105.1
410.6	108.0
410.8	112.9
411.0	117.2
411.2	120.5
411.4	122.9
411.6	128.1
411.8	132.1
412.0	136.0
412.2	140.6
412.4	144.1
412.6	147.6
412.8	151.8
413.0	154.9
413.2	158.5
413.4	163.5
413.6	167.4
413.8	172.7
414.0	176.7
414.2	181.6
414.4	186.6
414.6	192.1
414.8	196.9
415.0	203.6
415.2	210.2
415.4	215.1
415.6	219.4
415.8	224.5
416.0	229.1
416.2	236.3
416.4	243.1
416.6	249.8
416.8	254.8
417.0	260.7
417.2	265.6
417.4	270.9
417.6	275.1
417.8	282.3
418.0	287.8
418.2	293.4
418.4	299.8
418.6	306.6
418.8	313.2
419.0	321.1
419.2	328.0
419.4	335.6
419.6	344.3
419.8	351.6
420.0	356.9
420.2	362.3
420.4	367.1
420.6	375.5
420.8	384.1
421.0	392.6
421.2	398.4
421.4	404.3
421.6	408.7
421.8	416.7
422.0	424.6
422.2	432.6
422.4	440.8
422.6	449.7
422.8	456.9
423.0	463.5
423.2	469.3
423.4	476.9
423.6	486.3
423.8	493.6
424.0	500.3
424.2	506.8
424.4	514.8
424.6	525.6
424.8	534.6
425.0	540.5
425.2	546.5
425.4	554.4
425.6	561.6
425.8	569.7
426.0	576.7
426.2	585.1
426.4	594.1
426.6	604.3
426.8	612.4
427.0	617.8
427.2	625.4
427.4	634.3
427.6	639.4
427.8	649.4
428.0	655.1
428.2	660.5
428.4	669.1
428.6	676.8
428.8	681.7
429.0	692.0
429.2	699.0
429.4	706.0
429.6	714.1
429.8	721.4
430.0	729.3
430.2	737.6
430.4	745.9
430.6	752.4
430.8	759.0
431.0	764.0
431.2	772.6
431.4	783.1
431.6	792.1
431.8	799.2
432.0	805.7
432.2	809.6
432.4	817.7
432.6	825.0
432.8	830.6
433.0	836.4
433.2	842.9
433.4	849.1
433.6	859.1
433.8	864.9
434.0	870.2
434.2	875.3
434.4	877.6
434.6	883.8
434.8	891.9
435.0	896.6
435.2	905.8
435.4	912.0
435.6	919.0
435.8	929.1
436.0	936.2
436.2	940.0
436.4	946.7
436.6	951.2
436.8	959.4
437.0	969.5
437.2	974.2
437.4	982.1
437.6	984.1
437.8	988.5
438.0	993.4
438.2	1001
438.4	1005
438.6	1014
438.8	1017
439.0	1022
439.2	1028
439.4	1036
439.6	1043
439.8	1051
440.0	1052
440.2	1052
440.4	1056
440.6	1062
440.8	1068
441.0	1079
441.2	1081
441.4	1081
441.6	1088
441.8	1094
442.0	1102
442.2	1113
442.4	1118
442.6	1119
442.8	1122
443.0	1127
443.2	1134
443.4	1140
443.6	1144
443.8	1148
444.0	1154
444.2	1161
444.4	1165
444.6	1167
444.8	1169
445.0	1172
445.2	1179
445.4	1186
445.6	1192
445.8	1195
446.0	1199
446.2	1199
446.4	1204
446.6	1207
446.8	1212
447.0	1216
447.2	1222
447.4	1227
447.6	1234
447.8	1235
448.0	1237
448.2	1242
448.4	1247
448.6	1250
448.8	1258
449.0	1259
449.2	1263
449.4	1266
449.6	1273
449.8	1276
450.0	1282
450.2	1288
450.4	1292
450.6	1294
450.8	1300
451.0	1304
451.2	1309
451.4	1313
451.6	1319
451.8	1322
452.0	1325
452.2	1329
452.4	1333
452.6	1333
452.8	1341
453.0	1343
453.2	1348
453.4	1354
453.6	1360
453.8	1366
454.0	1370
454.2	1370
454.4	1377
454.6	1382
454.8	1384
455.0	1389
455.2	1389
455.4	1390
455.6	1397
455.8	1407
456.0	1414
456.2	1422
456.4	1423
456.6	1423
456.8	1423
457.0	1426
457.2	1430
457.4	1434
457.6	1439
457.8	1446
458.0	1451
458.2	1454
458.4	1458
458.6	1462
458.8	1469
459.0	1474
459.2	1479
459.4	1482
459.6	1482
459.8	1482
460.0	1485
460.2	1491
460.4	1496
460.6	1500
460.8	1502
461.0	1507
461.2	1513
461.4	1519
461.6	1523
461.8	1521
462.0	1521
462.2	1525
462.4	1531
462.6	1533
462.8	1537
463.0	1537
463.2	1541
463.4	1544
463.6	1555
463.8	1557
464.0	1559
464.2	1562
464.4	1566
464.6	1570
464.8	1578
465.0	1576
465.2	1578
465.4	1583
465.6	1583
465.8	1588
466.0	1590
466.2	1587
466.4	1593
466.6	1596
466.8	1599
467.0	1609
467.2	1610
467.4	1610
467.6	1611
467.8	1610
468.0	1611
468.2	1615
468.4	1615
468.6	1614
468.8	1623
469.0	1626
469.2	1628
469.4	1629
469.6	1627
469.8	1627
470.0	1630
470.2	1635
470.4	1639
470.6	1642
470.8	1647
471.0	1651
471.2	1652
471.4	1656
471.6	1658
471.8	1651
472.0	1649
472.2	1647
472.4	1646
472.6	1649
472.8	1655
473.0	1656
473.2	1661
473.4	1664
473.6	1661
473.8	1657
474.0	1658
474.2	1659
474.4	1663
474.6	1668
474.8	1671
475.0	1670
475.2	1674
475.4	1676
475.6	1673
475.8	1674
476.0	1677
476.2	1679
476.4	1680
476.6	1680
476.8	1677
477.0	1674
477.2	1677
477.4	1677
477.6	1678
477.8	1681
478.0	1686
478.2	1684
478.4	1683
478.6	1677
478.8	1678
479.0	1679
479.2	1676
479.4	1680
479.6	1684
479.8	1682
480.0	1685
480.2	1687
480.4	1683
480.6	1684
480.8	1684
481.0	1682
481.2	1682
481.4	1681
481.6	1681
481.8	1680
482.0	1680
482.2	1686
482.4	1691
482.6	1690
482.8	1686
483.0	1679
483.2	1673
483.4	1676
483.6	1679
483.8	1679
484.0	1674
484.2	1668
484.4	1665
484.6	1668
484.8	1670
485.0	1674
485.2	1675
485.4	1675
485.6	1675
485.8	1677
486.0	1675
486.2	1669
486.4	1664
486.6	1662
486.8	1662
487.0	1667
487.2	1668
487.4	1666
487.6	1660
487.8	1657
488.0	1655
488.2	1654
488.4	1653
488.6	1652
488.8	1644
489.0	1640
489.2	1642
489.4	1643
489.6	1644
489.8	1648
490.0	1643
490.2	1640
490.4	1638
490.6	1631
490.8	1627
491.0	1630
491.2	1627
491.4	1626
491.6	1621
491.8	1617
492.0	1616
492.2	1615
492.4	1612
492.6	1607
492.8	1601
493.0	1599
493.2	1597
493.4	1596
493.6	1589
493.8	1587
494.0	1585
494.2	1582
494.4	1581
494.6	1579
494.8	1570
495.0	1570
495.2	1570
495.4	1572
495.6	1576
495.8	1572
496.0	1564
496.2	1557
496.4	1549
496.6	1544
496.8	1543
497.0	1538
497.2	1534
497.4	1532
497.6	1529
497.8	1526
498.0	1523
498.2	1523
498.4	1519
498.6	1515
498.8	1505
499.0	1501
499.2	1496
499.4	1497
499.6	1497
499.8	1496
500.0	1489
500.2	1488
500.4	1481
500.6	1473
500.8	1468
501.0	1466
501.2	1464
501.4	1466
501.6	1457
501.8	1447
502.0	1441
502.2	1438
502.4	1433
502.6	1432
502.8	1430
503.0	1428
503.2	1425
503.4	1419
503.6	1413
503.8	1412
504.0	1410
504.2	1409
504.4	1401
504.6	1392
504.8	1383
505.0	1381
505.2	1375
505.4	1377
505.6	1378
505.8	1374
506.0	1365
506.2	1359
506.4	1349
506.6	1348
506.8	1349
507.0	1346
507.2	1339
507.4	1333
507.6	1321
507.8	1315
508.0	1309
508.2	1309
508.4	1309
508.6	1314
508.8	1309
509.0	1307
509.2	1298
509.4	1290
509.6	1285
509.8	1283
510.0	1276
510.2	1271
510.4	1264
510.6	1261
510.8	1260
511.0	1257
511.2	1254
511.4	1249
511.6	1243
511.8	1237
512.0	1234
512.2	1228
512.4	1222
512.6	1213
512.8	1204
513.0	1201
513.2	1200
513.4	1199
513.6	1195
513.8	1188
514.0	1183
514.2	1181
514.4	1177
514.6	1174
514.8	1169
515.0	1166
515.2	1162
515.4	1158
515.6	1155
515.8	1149
516.0	1143
516.2	1139
516.4	1136
516.6	1134
516.8	1131
517.0	1127
517.2	1122
517.4	1119
517.6	1113
517.8	1111
518.0	1106
518.2	1100
518.4	1095
518.6	1090
518.8	1085
519.0	1080
519.2	1077
519.4	1074
519.6	1071
519.8	1067
520.0	1063
520.2	1054
520.4	1050
520.6	1046
520.8	1043
521.0	1039
521.2	1034
521.4	1026
521.6	1024
521.8	1023
522.0	1022
522.2	1019
522.4	1011
522.6	999.2
522.8	998.1
523.0	995.9
523.2	995.0
523.4	990.7
523.6	983.0
523.8	979.6
524.0	978.8
524.2	977.6
524.4	979.0
524.6	972.8
524.8	967.0
525.0	960.6
525.2	952.4
525.4	946.9
525.6	944.1
525.8	940.0
526.0	938.4
526.2	935.7
526.4	933.6
526.6	929.6
526.8	924.1
527.0	916.7
527.2	913.0
527.4	911.9
527.6	912.3
527.8	909.1
528.0	902.3
528.2	893.7
528.4	890.1
528.6	889.2
528.8	885.6
529.0	882.4
529.2	878.4
529.4	874.8
529.6	874.2
529.8	872.7
530.0	867.6
530.2	863.8
530.4	859.4
530.6	854.0
530.8	848.0
531.0	844.3
531.2	842.9
531.4	841.4
531.6	837.5
531.8	833.7
532.0	827.6
532.2	825.2
532.4	821.2
532.6	817.4
532.8	811.4
533.0	807.3
533.2	803.0
533.4	802.5
533.6	800.6
533.8	796.5
534.0	792.2
534.2	787.9
534.4	786.5
534.6	783.3
534.8	780.4
535.0	779.5
535.2	777.4
535.4	775.4
535.6	773.5
535.8	766.4
536.0	760.1
536.2	761.3
536.4	761.0
536.6	758.3
536.8	752.9
537.0	746.9
537.2	739.2
537.4	736.4
537.6	735.4
537.8	729.4
538.0	725.1
538.2	721.8
538.4	717.4
538.6	718.8
538.8	721.7
539.0	719.7
539.2	714.5
539.4	705.0
539.6	696.0
539.8	690.3
540.0	690.8
540.2	694.2
540.4	692.0
540.6	690.3
540.8	687.6
541.0	682.5
541.2	679.3
541.4	675.4
541.6	668.4
541.8	665.7
542.0	664.9
542.2	664.8
542.4	663.7
542.6	660.0
542.8	655.2
543.0	651.4
543.2	647.2
543.4	644.2
543.6	641.0
543.8	637.0
544.0	632.5
544.2	629.6
544.4	623.7
544.6	622.6
544.8	620.7
545.0	618.5
545.2	616.9
545.4	615.2
545.6	611.6
545.8	609.5
546.0	607.2
546.2	603.8
546.4	602.1
546.6	598.7
546.8	595.1
547.0	589.1
547.2	584.2
547.4	581.5
547.6	579.1
547.8	574.7
548.0	572.7
548.2	569.1
548.4	565.1
548.6	564.4
548.8	562.3
549.0	559.6
549.2	560.2
549.4	558.6
549.6	553.3
549.8	547.6
550.0	544.4
550.2	540.7
550.4	541.5
550.6	539.8
550.8	536.3
551.0	532.5
551.2	530.4
551.4	527.2
551.6	526.3
551.8	522.4
552.0	519.2
552.2	517.2
552.4	513.7
552.6	511.1
552.8	506.4
553.0	503.1
553.2	500.5
553.4	498.3
553.6	497.1
553.8	494.5
554.0	488.8
554.2	487.2
554.4	483.8
554.6	483.1
554.8	482.7
555.0	481.0
555.2	479.5
555.4	478.7
555.6	474.3
555.8	471.8
556.0	466.5
556.2	462.4
556.4	460.1
556.6	458.4
556.8	452.4
557.0	450.9
557.2	447.4
557.4	447.9
557.6	446.4
557.8	444.5
558.0	437.3
558.2	434.6
558.4	431.0
558.6	431.5
558.8	431.2
559.0	429.6
559.2	427.2
559.4	424.3
559.6	423.2
559.8	423.1
560.0	422.5
560.2	418.5
560.4	414.9
560.6	411.0
560.8	408.9
561.0	405.9
561.2	402.7
561.4	399.5
561.6	397.0
561.8	395.0
562.0	394.7
562.2	394.1
562.4	395.0
562.6	394.0
562.8	392.5
563.0	386.8
563.2	382.2
563.4	381.2
563.6	378.5
563.8	374.9
564.0	373.9
564.2	370.9
564.4	368.2
564.6	368.2
564.8	365.3
565.0	363.9
565.2	362.9
565.4	360.8
565.6	358.2
565.8	356.5
566.0	353.8
566.2	351.9
566.4	349.0
566.6	345.6
566.8	345.4
567.0	344.8
567.2	344.2
567.4	342.4
567.6	339.5
567.8	335.9
568.0	335.2
568.2	334.1
568.4	332.2
568.6	328.7
568.8	327.1
569.0	326.0
569.2	325.9
569.4	325.1
569.6	322.9
569.8	318.4
570.0	316.0
570.2	313.8
570.4	311.9
570.6	311.3
570.8	312.0
571.0	310.9
571.2	310.3
571.4	308.7
571.6	306.6
571.8	304.2
572.0	301.5
572.2	298.6
572.4	296.2
572.6	295.9
572.8	295.4
573.0	295.3
573.2	294.2
573.4	291.0
573.6	287.4
573.8	286.0
574.0	282.9
574.2	282.3
574.4	281.3
574.6	279.8
574.8	279.3
575.0	278.5
575.2	277.0
575.4	274.6
575.6	271.3
575.8	269.2
576.0	268.3
576.2	266.3
576.4	265.1
576.6	263.0
576.8	261.8
577.0	261.5
577.2	260.7
577.4	257.7
577.6	256.3
577.8	256.7
578.0	257.5
578.2	257.8
578.4	255.8
578.6	251.8
578.8	248.2
579.0	246.0
579.2	244.4
579.4	244.6
579.6	244.6
579.8	244.9
580.0	245.1
580.2	243.4
580.4	240.3
580.6	238.0
580.8	235.7
581.0	232.8
581.2	233.1
581.4	232.1
581.6	230.5
581.8	230.6
582.0	229.5
582.2	227.2
582.4	226.2
582.6	224.5
582.8	224.3
583.0	222.5
583.2	222.6
583.4	221.7
583.6	221.8
583.8	220.5
584.0	219.6
584.2	215.5
584.4	214.5
584.6	211.0
584.8	210.2
585.0	209.1
585.2	209.1
585.4	208.9
585.6	208.5
585.8	206.4
586.0	205.3
586.2	204.3
586.4	203.6
586.6	203.2
586.8	201.2
587.0	198.5
587.2	197.8
587.4	196.0
587.6	195.6
587.8	195.6
588.0	194.0
588.2	192.0
588.4	191.5
588.6	189.4
588.8	189.4
589.0	188.8
589.2	187.1
589.4	185.9
589.6	185.7
589.8	183.5
590.0	182.5
590.2	179.8
590.4	177.5
590.6	176.7
590.8	176.9
591.0	177.4
591.2	179.2
591.4	177.8
591.6	177.8
591.8	175.8
592.0	173.8
592.2	171.6
592.4	171.1
592.6	169.2
592.8	169.1
593.0	168.6
593.2	168.5
593.4	166.2
593.6	166.2
593.8	164.3
594.0	163.4
594.2	163.5
594.4	161.7
594.6	160.4
594.8	160.1
595.0	159.3
595.2	158.3
595.4	157.4
595.6	156.1
595.8	155.3
596.0	154.4
596.2	154.3
596.4	153.3
596.6	152.4
596.8	152.8
597.0	151.1
597.2	149.5
597.4	147.7
597.6	146.7
597.8	145.8
598.0	145.8
598.2	144.3
598.4	143.5
598.6	141.6
598.8	141.1
599.0	141.3
599.2	141.3
599.4	140.4
599.6	138.2
599.8	136.7
600.0	136.4
600.2	136.5
600.4	136.5
600.6	135.0
600.8	132.8
601.0	132.9
601.2	132.3
601.4	131.7
601.6	131.5
601.8	130.0
602.0	128.7
602.2	128.5
602.4	127.7
602.6	126.9
602.8	125.6
603.0	124.8
603.2	124.0
603.4	123.8
603.6	123.6
603.8	124.3
604.0	124.1
604.2	123.9
604.4	122.1
604.6	120.5
604.8	119.8
605.0	119.6
605.2	120.3
605.4	119.6
605.6	117.8
605.8	116.7
606.0	115.4
606.2	114.6
606.4	113.7
606.6	112.4
606.8	112.1
607.0	111.1
607.2	109.9
607.4	110.7
607.6	108.5
607.8	108.1
608.0	108.5
608.2	107.7
608.4	107.1
608.6	106.7
608.8	105.0
609.0	104.8
609.2	104.1
609.4	103.5
609.6	102.3
609.8	101.7
610.0	100.6
610.2	100.3
610.4	99.92
610.6	99.20
610.8	98.35
611.0	98.51
611.2	96.78
611.4	96.79
611.6	96.36
611.8	95.82
612.0	96.02
612.2	96.48
612.4	96.00
612.6	95.19
612.8	94.55
613.0	93.94
613.2	92.93
613.4	92.19
613.6	91.20
613.8	89.75
614.0	90.42
614.2	90.52
614.4	89.90
614.6	89.29
614.8	88.08
615.0	86.98
615.2	87.35
615.4	86.82
615.6	86.49
615.8	86.07
616.0	85.28
616.2	84.23
616.4	82.60
616.6	81.90
616.8	81.98
617.0	82.64
617.2	83.35
617.4	82.69
617.6	82.03
617.8	80.90
618.0	79.83
618.2	79.09
618.4	78.31
618.6	76.70
618.8	78.05
619.0	77.21
619.2	76.57
619.4	75.60
619.6	74.98
619.8	74.04
620.0	74.78
620.2	73.78
620.4	73.10
620.6	72.74
620.8	73.37
621.0	73.49
621.2	72.78
621.4	71.71
621.6	71.35
621.8	70.65
622.0	71.35
622.2	71.14
622.4	69.81
622.6	68.79
622.8	67.60
623.0	66.94
623.2	67.99
623.4	67.46
623.6	67.22
623.8	66.36
624.0	65.15
624.2	65.81
624.4	65.30
624.6	65.23
624.8	65.57
625.0	65.14
625.2	64.43
625.4	64.22
625.6	62.83
625.8	62.88
626.0	62.25
626.2	61.80
626.4	60.69
626.6	60.17
626.8	59.37
627.0	59.10
627.2	58.71
627.4	58.78
627.6	58.54
627.8	58.91
628.0	58.35
628.2	58.22
628.4	57.81
628.6	56.64
628.8	55.90
629.0	55.99
629.2	55.83
629.4	56.40
629.6	56.04
629.8	54.64
630.0	53.70
630.2	53.32
630.4	53.03
630.6	53.52
630.8	52.99
631.0	52.38
631.2	51.84
631.4	51.90
631.6	51.95
631.8	51.85
632.0	50.64
632.2	50.06
632.4	49.94
632.6	49.96
632.8	50.22
633.0	50.10
633.2	49.18
633.4	49.33
633.6	49.61
633.8	49.41
634.0	48.75
634.2	48.26
634.4	47.62
634.6	47.34
634.8	47.70
635.0	48.02
635.2	47.62
635.4	46.81
635.6	46.27
635.8	45.33
636.0	44.35
636.2	44.17
636.4	44.05
636.6	43.57
636.8	44.35
637.0	44.56
637.2	43.80
637.4	43.84
637.6	43.50
637.8	42.81
638.0	42.72
638.2	42.55
638.4	42.23
638.6	41.44
638.8	40.75
639.0	39.77
639.2	40.02
639.4	40.39
639.6	40.77
639.8	40.26
640.0	39.98
640.2	39.18
640.4	38.57
640.6	39.05
640.8	38.93
641.0	39.35
641.2	39.80
641.4	38.69
641.6	37.11
641.8	37.04
642.0	36.58
642.2	36.52
642.4	37.18
642.6	36.40
642.8	35.66
643.0	35.77
643.2	35.92
643.4	35.32
643.6	35.62
643.8	34.66
644.0	34.18
644.2	33.83
644.4	33.45
644.6	33.35
644.8	33.83
645.0	33.87
645.2	34.48
645.4	34.09
645.6	33.18
645.8	33.18
646.0	32.88
646.2	32.50
646.4	32.66
646.6	32.30
646.8	31.59
647.0	31.94
647.2	31.34
647.4	30.68
647.6	30.17
647.8	29.96
648.0	29.97
648.2	30.36
648.4	30.34
648.6	30.30
648.8	29.77
649.0	29.93
649.2	29.44
649.4	29.04
649.6	28.58
649.8	28.48
650.0	28.11
650.2	28.46
650.4	28.24
650.6	28.58
650.8	28.45
651.0	27.72
651.2	26.87
651.4	26.51
651.6	26.55
651.8	26.81
652.0	26.76
652.2	26.15
652.4	25.59
652.6	24.83
652.8	24.74
653.0	24.75
653.2	25.23
653.4	25.91
653.6	26.14
653.8	25.51
654.0	24.93
654.2	24.52
654.4	24.71
654.6	24.92
654.8	24.23
655.0	24.03
655.2	23.76
655.4	23.72
655.6	23.85
655.8	24.00
656.0	23.28
656.2	23.34
656.4	23.13
656.6	22.56
656.8	22.24
657.0	22.02
657.2	21.91
657.4	22.32
657.6	22.34
657.8	21.84
658.0	21.44
658.2	20.81
658.4	20.18
658.6	20.45
658.8	20.70
659.0	20.91
659.2	21.04
659.4	20.80
659.6	20.67
659.8	21.46
660.0	21.32
660.2	21.25
660.4	20.80
660.6	19.89
660.8	19.33
661.0	19.55
661.2	19.53
661.4	19.77
661.6	19.48
661.8	19.32
662.0	18.77
662.2	18.56
662.4	18.79
662.6	18.94
662.8	19.38
663.0	19.61
663.2	19.17
663.4	18.49
663.6	18.01
663.8	17.55
664.0	18.01
664.2	17.80
664.4	17.78
664.6	17.87
664.8	17.84
665.0	17.74
665.2	17.91
665.4	17.23
665.6	16.96
665.8	16.93
666.0	16.87
666.2	17.10
666.4	17.36
666.6	16.95
666.8	16.62
667.0	16.42
667.2	16.38
667.4	16.58
667.6	16.68
667.8	16.65
668.0	16.54
668.2	16.27
668.4	16.25
668.6	16.29
668.8	15.94
669.0	15.75
669.2	15.44
669.4	15.27
669.6	15.06
669.8	15.28
670.0	15.23
670.2	15.26
670.4	15.17
670.6	15.31
670.8	15.10
671.0	15.32
671.2	14.74
671.4	14.35
671.6	13.94
671.8	13.99
672.0	14.20
672.2	14.28
672.4	14.00
672.6	13.75
672.8	13.41
673.0	13.14
673.2	12.97
673.4	12.95
673.6	13.28
673.8	13.50
674.0	13.49
674.2	13.02
674.4	12.86
674.6	12.63
674.8	12.71
675.0	12.91
675.2	12.63
675.4	12.04
675.6	12.21
675.8	12.42
676.0	12.85
676.2	12.81
676.4	12.83
676.6	12.32
676.8	12.12
677.0	12.34
677.2	12.14
677.4	11.82
677.6	11.78
677.8	11.77
678.0	11.83
678.2	11.86
678.4	11.61
678.6	11.55
678.8	11.10
679.0	11.06
679.2	11.20
679.4	11.44
679.6	11.88
679.8	11.78
680.0	10.65

