Sample:	'20211010A(EM)
File name:	B-CDs 7 700.FDS
Run date:	'15:22:09, 06/08/2023
Operator:	Administrator
Comment:	'

Instrument
Model:	F-4700 FL Spectrophotometer
Serial number:	2019-001
ROM Version:	5J24010 00

Instrument parameters
Measurement type:	Wavelength scan
Scan mode:	Emission
Data mode:	Fluorescence
EX WL:	350.0 nm
EM  Start WL:	370.0 nm
EM  End WL:	680.0 nm
Scan speed:	1200 nm/min
Delay:	0.0 s
EX Slit:	10.0 nm
EM Slit:	10.0 nm
PMT Voltage:	440 V
Response:	0.002 s
Corrected spectra:	Off
Shutter control:	On

Processing performed
Savitsky-Golay smoothed
Smoothing order:	3
Number of points:	7
Number of times:	1

Peak integration
Integration method:	Rectangular
Sensitivity:	1
Threshold:	1.000

Peaks
No.	Start(nm)	Apex(nm)	End(nm)	Height(Data)	Valley(nm)	Valley(Data)
1	370.0	452.6	453.6	4929	453.6	4910
2	453.6	457.2	680.0	4945	680.0	13.24

Data points
nm	Data
370.0	6.420
370.2	6.862
370.4	6.970
370.6	6.891
370.8	6.756
371.0	6.807
371.2	7.018
371.4	7.002
371.6	7.278
371.8	7.344
372.0	7.314
372.2	7.293
372.4	7.541
372.6	7.784
372.8	8.232
373.0	8.281
373.2	8.237
373.4	8.294
373.6	8.490
373.8	8.515
374.0	9.024
374.2	9.476
374.4	9.862
374.6	10.03
374.8	10.06
375.0	10.07
375.2	10.03
375.4	10.20
375.6	10.30
375.8	10.46
376.0	10.99
376.2	11.37
376.4	11.51
376.6	11.74
376.8	11.84
377.0	12.10
377.2	12.66
377.4	12.79
377.6	13.08
377.8	13.53
378.0	13.96
378.2	14.51
378.4	14.83
378.6	15.05
378.8	15.36
379.0	15.79
379.2	16.24
379.4	16.88
379.6	16.96
379.8	17.38
380.0	17.81
380.2	18.16
380.4	18.71
380.6	19.79
380.8	20.11
381.0	20.73
381.2	21.32
381.4	21.57
381.6	22.06
381.8	23.13
382.0	23.40
382.2	24.24
382.4	25.42
382.6	25.65
382.8	26.11
383.0	27.37
383.2	28.15
383.4	29.42
383.6	30.71
383.8	31.10
384.0	31.76
384.2	33.16
384.4	34.31
384.6	34.96
384.8	36.14
385.0	37.14
385.2	38.77
385.4	40.47
385.6	42.19
385.8	43.61
386.0	45.35
386.2	46.54
386.4	47.91
386.6	49.09
386.8	50.48
387.0	52.24
387.2	54.30
387.4	56.24
387.6	57.97
387.8	59.89
388.0	61.59
388.2	63.60
388.4	65.80
388.6	67.98
388.8	70.16
389.0	72.47
389.2	75.39
389.4	79.11
389.6	81.78
389.8	84.62
390.0	87.24
390.2	89.39
390.4	92.43
390.6	96.00
390.8	98.82
391.0	102.7
391.2	106.2
391.4	109.1
391.6	112.1
391.8	115.3
392.0	119.1
392.2	123.8
392.4	127.6
392.6	131.2
392.8	135.6
393.0	139.5
393.2	145.0
393.4	149.1
393.6	153.3
393.8	158.1
394.0	163.0
394.2	167.7
394.4	174.7
394.6	179.5
394.8	185.8
395.0	191.4
395.2	196.7
395.4	203.5
395.6	211.9
395.8	218.3
396.0	224.9
396.2	231.4
396.4	237.5
396.6	245.2
396.8	252.6
397.0	260.1
397.2	267.6
397.4	276.7
397.6	284.8
397.8	293.6
398.0	301.5
398.2	310.6
398.4	319.4
398.6	329.2
398.8	338.4
399.0	346.5
399.2	356.1
399.4	366.1
399.6	375.6
399.8	386.6
400.0	397.0
400.2	407.7
400.4	419.7
400.6	432.8
400.8	445.2
401.0	457.9
401.2	470.3
401.4	483.6
401.6	496.0
401.8	508.8
402.0	521.0
402.2	533.4
402.4	547.9
402.6	562.4
402.8	575.6
403.0	588.9
403.2	602.0
403.4	616.5
403.6	633.0
403.8	649.3
404.0	664.5
404.2	682.2
404.4	698.3
404.6	715.2
404.8	730.8
405.0	747.2
405.2	763.8
405.4	781.7
405.6	798.5
405.8	816.1
406.0	833.2
406.2	852.7
406.4	872.2
406.6	890.0
406.8	910.1
407.0	928.1
407.2	946.5
407.4	967.5
407.6	984.7
407.8	1003
408.0	1025
408.2	1044
408.4	1066
408.6	1089
408.8	1107
409.0	1128
409.2	1150
409.4	1172
409.6	1194
409.8	1217
410.0	1237
410.2	1260
410.4	1284
410.6	1309
410.8	1331
411.0	1354
411.2	1375
411.4	1401
411.6	1427
411.8	1454
412.0	1477
412.2	1498
412.4	1521
412.6	1546
412.8	1566
413.0	1589
413.2	1613
413.4	1637
413.6	1664
413.8	1693
414.0	1716
414.2	1746
414.4	1770
414.6	1800
414.8	1830
415.0	1858
415.2	1882
415.4	1909
415.6	1925
415.8	1949
416.0	1978
416.2	2008
416.4	2035
416.6	2063
416.8	2081
417.0	2106
417.2	2131
417.4	2158
417.6	2187
417.8	2215
418.0	2239
418.2	2272
418.4	2296
418.6	2324
418.8	2350
419.0	2376
419.2	2399
419.4	2427
419.6	2452
419.8	2484
420.0	2513
420.2	2542
420.4	2571
420.6	2596
420.8	2621
421.0	2644
421.2	2668
421.4	2689
421.6	2714
421.8	2742
422.0	2770
422.2	2796
422.4	2820
422.6	2841
422.8	2862
423.0	2885
423.2	2907
423.4	2934
423.6	2962
423.8	2989
424.0	3019
424.2	3046
424.4	3070
424.6	3096
424.8	3114
425.0	3136
425.2	3164
425.4	3192
425.6	3218
425.8	3242
426.0	3260
426.2	3277
426.4	3303
426.6	3331
426.8	3356
427.0	3381
427.2	3408
427.4	3425
427.6	3446
427.8	3470
428.0	3492
428.2	3512
428.4	3536
428.6	3556
428.8	3567
429.0	3590
429.2	3617
429.4	3641
429.6	3669
429.8	3697
430.0	3718
430.2	3738
430.4	3764
430.6	3791
430.8	3805
431.0	3824
431.2	3844
431.4	3862
431.6	3882
431.8	3905
432.0	3916
432.2	3933
432.4	3950
432.6	3967
432.8	3979
433.0	3995
433.2	4019
433.4	4043
433.6	4062
433.8	4078
434.0	4093
434.2	4108
434.4	4122
434.6	4132
434.8	4143
435.0	4163
435.2	4190
435.4	4220
435.6	4240
435.8	4251
436.0	4262
436.2	4273
436.4	4278
436.6	4295
436.8	4306
437.0	4317
437.2	4337
437.4	4359
437.6	4376
437.8	4387
438.0	4396
438.2	4404
438.4	4421
438.6	4434
438.8	4442
439.0	4445
439.2	4464
439.4	4480
439.6	4499
439.8	4519
440.0	4522
440.2	4534
440.4	4549
440.6	4557
440.8	4566
441.0	4579
441.2	4582
441.4	4593
441.6	4595
441.8	4605
442.0	4616
442.2	4625
442.4	4636
442.6	4645
442.8	4643
443.0	4656
443.2	4677
443.4	4691
443.6	4701
443.8	4706
444.0	4702
444.2	4712
444.4	4723
444.6	4734
444.8	4743
445.0	4756
445.2	4767
445.4	4781
445.6	4786
445.8	4784
446.0	4779
446.2	4782
446.4	4789
446.6	4805
446.8	4816
447.0	4820
447.2	4815
447.4	4816
447.6	4815
447.8	4827
448.0	4839
448.2	4845
448.4	4845
448.6	4845
448.8	4838
449.0	4844
449.2	4858
449.4	4867
449.6	4869
449.8	4867
450.0	4861
450.2	4865
450.4	4875
450.6	4888
450.8	4898
451.0	4900
451.2	4900
451.4	4905
451.6	4905
451.8	4914
452.0	4921
452.2	4925
452.4	4927
452.6	4929
452.8	4924
453.0	4922
453.2	4915
453.4	4913
453.6	4910
453.8	4917
454.0	4920
454.2	4929
454.4	4933
454.6	4928
454.8	4920
455.0	4921
455.2	4925
455.4	4927
455.6	4933
455.8	4937
456.0	4934
456.2	4931
456.4	4932
456.6	4930
456.8	4934
457.0	4941
457.2	4945
457.4	4942
457.6	4937
457.8	4927
458.0	4918
458.2	4916
458.4	4917
458.6	4925
458.8	4925
459.0	4918
459.2	4917
459.4	4911
459.6	4907
459.8	4908
460.0	4909
460.2	4903
460.4	4901
460.6	4898
460.8	4889
461.0	4886
461.2	4885
461.4	4876
461.6	4871
461.8	4874
462.0	4867
462.2	4880
462.4	4884
462.6	4883
462.8	4866
463.0	4852
463.2	4846
463.4	4855
463.6	4854
463.8	4855
464.0	4843
464.2	4838
464.4	4836
464.6	4833
464.8	4824
465.0	4821
465.2	4811
465.4	4814
465.6	4817
465.8	4810
466.0	4805
466.2	4799
466.4	4784
466.6	4777
466.8	4777
467.0	4763
467.2	4761
467.4	4758
467.6	4750
467.8	4737
468.0	4730
468.2	4722
468.4	4716
468.6	4716
468.8	4712
469.0	4709
469.2	4704
469.4	4691
469.6	4668
469.8	4646
470.0	4638
470.2	4634
470.4	4635
470.6	4637
470.8	4633
471.0	4620
471.2	4615
471.4	4609
471.6	4611
471.8	4606
472.0	4603
472.2	4587
472.4	4571
472.6	4562
472.8	4553
473.0	4544
473.2	4537
473.4	4533
473.6	4525
473.8	4512
474.0	4500
474.2	4491
474.4	4479
474.6	4475
474.8	4466
475.0	4452
475.2	4446
475.4	4437
475.6	4432
475.8	4425
476.0	4412
476.2	4395
476.4	4381
476.6	4370
476.8	4363
477.0	4355
477.2	4342
477.4	4335
477.6	4327
477.8	4326
478.0	4321
478.2	4319
478.4	4305
478.6	4294
478.8	4282
479.0	4277
479.2	4264
479.4	4252
479.6	4244
479.8	4241
480.0	4236
480.2	4228
480.4	4212
480.6	4195
480.8	4190
481.0	4185
481.2	4169
481.4	4161
481.6	4156
481.8	4147
482.0	4139
482.2	4131
482.4	4115
482.6	4106
482.8	4089
483.0	4074
483.2	4064
483.4	4065
483.6	4065
483.8	4063
484.0	4047
484.2	4040
484.4	4030
484.6	4019
484.8	4004
485.0	3987
485.2	3964
485.4	3956
485.6	3948
485.8	3942
486.0	3935
486.2	3927
486.4	3907
486.6	3894
486.8	3881
487.0	3878
487.2	3874
487.4	3871
487.6	3861
487.8	3845
488.0	3831
488.2	3820
488.4	3804
488.6	3793
488.8	3787
489.0	3780
489.2	3774
489.4	3764
489.6	3747
489.8	3735
490.0	3726
490.2	3714
490.4	3702
490.6	3691
490.8	3675
491.0	3663
491.2	3653
491.4	3639
491.6	3629
491.8	3620
492.0	3607
492.2	3597
492.4	3583
492.6	3574
492.8	3568
493.0	3560
493.2	3547
493.4	3536
493.6	3512
493.8	3487
494.0	3476
494.2	3463
494.4	3456
494.6	3446
494.8	3437
495.0	3424
495.2	3421
495.4	3410
495.6	3400
495.8	3383
496.0	3369
496.2	3357
496.4	3346
496.6	3328
496.8	3313
497.0	3300
497.2	3289
497.4	3278
497.6	3262
497.8	3253
498.0	3240
498.2	3229
498.4	3223
498.6	3214
498.8	3196
499.0	3191
499.2	3180
499.4	3165
499.6	3152
499.8	3136
500.0	3116
500.2	3101
500.4	3091
500.6	3081
500.8	3072
501.0	3053
501.2	3040
501.4	3026
501.6	3014
501.8	3003
502.0	2991
502.2	2971
502.4	2964
502.6	2953
502.8	2938
503.0	2930
503.2	2920
503.4	2908
503.6	2896
503.8	2880
504.0	2875
504.2	2870
504.4	2859
504.6	2841
504.8	2823
505.0	2801
505.2	2794
505.4	2784
505.6	2772
505.8	2762
506.0	2756
506.2	2743
506.4	2727
506.6	2714
506.8	2697
507.0	2685
507.2	2673
507.4	2660
507.6	2646
507.8	2639
508.0	2629
508.2	2621
508.4	2611
508.6	2596
508.8	2579
509.0	2566
509.2	2553
509.4	2539
509.6	2524
509.8	2507
510.0	2491
510.2	2481
510.4	2472
510.6	2461
510.8	2449
511.0	2440
511.2	2428
511.4	2418
511.6	2409
511.8	2393
512.0	2385
512.2	2374
512.4	2364
512.6	2354
512.8	2346
513.0	2337
513.2	2326
513.4	2310
513.6	2295
513.8	2280
514.0	2267
514.2	2259
514.4	2247
514.6	2232
514.8	2220
515.0	2210
515.2	2201
515.4	2197
515.6	2184
515.8	2169
516.0	2160
516.2	2152
516.4	2145
516.6	2141
516.8	2127
517.0	2111
517.2	2099
517.4	2082
517.6	2072
517.8	2062
518.0	2054
518.2	2050
518.4	2041
518.6	2030
518.8	2018
519.0	2005
519.2	1995
519.4	1988
519.6	1981
519.8	1977
520.0	1968
520.2	1959
520.4	1949
520.6	1931
520.8	1919
521.0	1907
521.2	1896
521.4	1889
521.6	1883
521.8	1873
522.0	1864
522.2	1850
522.4	1836
522.6	1828
522.8	1820
523.0	1817
523.2	1814
523.4	1807
523.6	1796
523.8	1786
524.0	1770
524.2	1757
524.4	1748
524.6	1738
524.8	1730
525.0	1720
525.2	1710
525.4	1701
525.6	1695
525.8	1688
526.0	1681
526.2	1666
526.4	1655
526.6	1648
526.8	1641
527.0	1638
527.2	1634
527.4	1623
527.6	1613
527.8	1605
528.0	1593
528.2	1581
528.4	1573
528.6	1562
528.8	1558
529.0	1551
529.2	1543
529.4	1535
529.6	1526
529.8	1516
530.0	1513
530.2	1509
530.4	1498
530.6	1487
530.8	1476
531.0	1466
531.2	1459
531.4	1454
531.6	1446
531.8	1440
532.0	1435
532.2	1430
532.4	1424
532.6	1414
532.8	1402
533.0	1390
533.2	1380
533.4	1371
533.6	1368
533.8	1363
534.0	1353
534.2	1345
534.4	1339
534.6	1329
534.8	1322
535.0	1316
535.2	1309
535.4	1306
535.6	1300
535.8	1290
536.0	1283
536.2	1279
536.4	1273
536.6	1269
536.8	1261
537.0	1253
537.2	1247
537.4	1240
537.6	1233
537.8	1225
538.0	1218
538.2	1207
538.4	1201
538.6	1195
538.8	1187
539.0	1178
539.2	1173
539.4	1167
539.6	1163
539.8	1158
540.0	1151
540.2	1142
540.4	1136
540.6	1132
540.8	1129
541.0	1121
541.2	1114
541.4	1104
541.6	1093
541.8	1084
542.0	1078
542.2	1072
542.4	1071
542.6	1067
542.8	1061
543.0	1057
543.2	1051
543.4	1044
543.6	1041
543.8	1032
544.0	1025
544.2	1020
544.4	1013
544.6	1005
544.8	999.8
545.0	992.9
545.2	985.8
545.4	982.5
545.6	978.1
545.8	972.4
546.0	966.8
546.2	960.2
546.4	952.2
546.6	948.3
546.8	944.8
547.0	942.1
547.2	939.5
547.4	932.1
547.6	923.1
547.8	916.5
548.0	908.5
548.2	903.6
548.4	897.8
548.6	890.9
548.8	886.3
549.0	882.1
549.2	876.4
549.4	871.5
549.6	867.3
549.8	864.7
550.0	859.2
550.2	853.6
550.4	847.8
550.6	841.9
550.8	838.8
551.0	834.4
551.2	827.6
551.4	823.5
551.6	819.1
551.8	813.5
552.0	808.2
552.2	801.0
552.4	796.0
552.6	794.7
552.8	791.4
553.0	785.9
553.2	779.5
553.4	773.0
553.6	767.8
553.8	763.9
554.0	760.3
554.2	755.4
554.4	750.9
554.6	746.5
554.8	742.8
555.0	737.6
555.2	735.7
555.4	731.0
555.6	726.3
555.8	719.9
556.0	713.7
556.2	710.8
556.4	711.1
556.6	708.2
556.8	703.6
557.0	698.3
557.2	691.7
557.4	687.8
557.6	684.5
557.8	679.7
558.0	675.4
558.2	672.5
558.4	668.6
558.6	664.3
558.8	659.2
559.0	654.9
559.2	649.0
559.4	647.3
559.6	644.9
559.8	641.9
560.0	637.3
560.2	632.7
560.4	626.0
560.6	621.8
560.8	618.3
561.0	615.7
561.2	612.6
561.4	609.2
561.6	606.2
561.8	600.5
562.0	597.2
562.2	593.8
562.4	592.0
562.6	588.6
562.8	585.6
563.0	580.6
563.2	575.0
563.4	569.5
563.6	567.8
563.8	564.7
564.0	562.3
564.2	559.1
564.4	554.2
564.6	550.1
564.8	547.7
565.0	545.7
565.2	542.8
565.4	537.9
565.6	533.2
565.8	529.8
566.0	525.3
566.2	522.1
566.4	519.5
566.6	516.1
566.8	513.2
567.0	511.8
567.2	509.1
567.4	504.8
567.6	501.6
567.8	498.4
568.0	495.0
568.2	493.2
568.4	491.6
568.6	488.0
568.8	485.4
569.0	481.9
569.2	477.8
569.4	474.7
569.6	472.3
569.8	470.6
570.0	468.9
570.2	466.3
570.4	462.0
570.6	458.6
570.8	454.8
571.0	450.5
571.2	447.7
571.4	445.3
571.6	442.8
571.8	442.4
572.0	439.7
572.2	437.1
572.4	432.9
572.6	429.0
572.8	426.6
573.0	425.6
573.2	424.4
573.4	422.9
573.6	417.4
573.8	413.7
574.0	411.1
574.2	409.3
574.4	408.7
574.6	406.5
574.8	404.0
575.0	401.4
575.2	397.1
575.4	394.6
575.6	393.1
575.8	389.8
576.0	388.6
576.2	386.5
576.4	382.2
576.6	379.1
576.8	377.4
577.0	376.6
577.2	375.2
577.4	373.3
577.6	370.5
577.8	367.5
578.0	364.3
578.2	364.9
578.4	363.3
578.6	362.1
578.8	359.7
579.0	356.1
579.2	351.5
579.4	348.3
579.6	345.0
579.8	344.0
580.0	342.3
580.2	341.0
580.4	340.4
580.6	338.0
580.8	335.6
581.0	334.5
581.2	332.9
581.4	330.0
581.6	328.8
581.8	325.6
582.0	321.8
582.2	318.8
582.4	316.8
582.6	314.7
582.8	316.9
583.0	316.5
583.2	314.1
583.4	310.9
583.6	307.0
583.8	304.5
584.0	303.1
584.2	302.0
584.4	299.8
584.6	298.2
584.8	296.2
585.0	295.2
585.2	292.1
585.4	290.3
585.6	288.2
585.8	287.3
586.0	285.0
586.2	283.0
586.4	280.5
586.6	279.1
586.8	278.4
587.0	277.1
587.2	275.0
587.4	272.9
587.6	271.3
587.8	269.3
588.0	267.1
588.2	265.6
588.4	264.4
588.6	261.8
588.8	261.4
589.0	259.6
589.2	257.8
589.4	257.0
589.6	255.4
589.8	252.6
590.0	252.2
590.2	251.0
590.4	249.7
590.6	247.8
590.8	246.7
591.0	244.8
591.2	242.4
591.4	240.9
591.6	239.2
591.8	238.2
592.0	237.4
592.2	236.3
592.4	234.0
592.6	231.1
592.8	229.0
593.0	228.5
593.2	226.9
593.4	225.9
593.6	223.3
593.8	220.4
594.0	219.7
594.2	219.4
594.4	218.2
594.6	217.9
594.8	216.2
595.0	215.8
595.2	214.6
595.4	213.0
595.6	211.2
595.8	210.4
596.0	208.8
596.2	208.5
596.4	206.9
596.6	205.3
596.8	205.1
597.0	203.9
597.2	202.7
597.4	200.2
597.6	198.1
597.8	195.3
598.0	195.4
598.2	193.6
598.4	193.4
598.6	190.6
598.8	189.5
599.0	188.3
599.2	187.9
599.4	187.4
599.6	186.3
599.8	184.4
600.0	184.2
600.2	183.8
600.4	182.1
600.6	181.1
600.8	179.1
601.0	177.4
601.2	177.0
601.4	176.2
601.6	174.6
601.8	173.1
602.0	172.6
602.2	171.0
602.4	170.9
602.6	170.7
602.8	169.7
603.0	168.7
603.2	167.3
603.4	164.9
603.6	163.5
603.8	162.7
604.0	161.7
604.2	161.5
604.4	160.7
604.6	158.9
604.8	157.8
605.0	156.2
605.2	155.0
605.4	154.2
605.6	153.1
605.8	151.9
606.0	151.2
606.2	149.9
606.4	149.0
606.6	148.3
606.8	148.2
607.0	148.2
607.2	146.5
607.4	146.0
607.6	145.7
607.8	144.7
608.0	144.3
608.2	143.7
608.4	141.4
608.6	139.8
608.8	139.6
609.0	137.9
609.2	136.9
609.4	136.7
609.6	135.4
609.8	134.4
610.0	133.6
610.2	131.2
610.4	129.0
610.6	129.4
610.8	129.4
611.0	129.8
611.2	129.6
611.4	128.3
611.6	127.0
611.8	126.4
612.0	124.7
612.2	123.7
612.4	122.4
612.6	121.9
612.8	121.7
613.0	120.9
613.2	120.3
613.4	119.9
613.6	118.5
613.8	118.2
614.0	117.3
614.2	116.7
614.4	116.6
614.6	115.8
614.8	114.5
615.0	114.4
615.2	113.7
615.4	113.4
615.6	113.1
615.8	111.7
616.0	110.1
616.2	109.2
616.4	108.4
616.6	107.7
616.8	107.3
617.0	106.9
617.2	106.4
617.4	106.4
617.6	106.6
617.8	106.3
618.0	106.0
618.2	105.0
618.4	103.8
618.6	102.1
618.8	100.8
619.0	99.79
619.2	98.96
619.4	98.75
619.6	98.54
619.8	98.28
620.0	96.96
620.2	95.96
620.4	94.75
620.6	94.68
620.8	93.92
621.0	93.36
621.2	91.97
621.4	91.79
621.6	91.23
621.8	91.35
622.0	91.35
622.2	90.41
622.4	88.61
622.6	87.68
622.8	86.63
623.0	86.21
623.2	86.29
623.4	86.25
623.6	85.34
623.8	84.53
624.0	84.15
624.2	83.45
624.4	82.82
624.6	82.61
624.8	81.97
625.0	81.86
625.2	81.10
625.4	80.58
625.6	79.89
625.8	79.40
626.0	79.06
626.2	79.71
626.4	79.08
626.6	78.46
626.8	77.05
627.0	76.38
627.2	76.10
627.4	76.00
627.6	75.06
627.8	74.40
628.0	73.32
628.2	72.84
628.4	72.39
628.6	72.05
628.8	71.65
629.0	71.90
629.2	71.34
629.4	70.91
629.6	69.93
629.8	68.89
630.0	68.79
630.2	68.80
630.4	68.49
630.6	67.61
630.8	67.05
631.0	65.96
631.2	65.68
631.4	64.99
631.6	64.91
631.8	64.32
632.0	64.58
632.2	64.20
632.4	63.60
632.6	62.13
632.8	61.36
633.0	61.14
633.2	61.30
633.4	61.15
633.6	60.55
633.8	59.77
634.0	58.86
634.2	58.73
634.4	59.08
634.6	59.16
634.8	58.97
635.0	58.57
635.2	57.34
635.4	56.66
635.6	56.31
635.8	56.14
636.0	55.82
636.2	55.54
636.4	55.26
636.6	55.70
636.8	55.81
637.0	55.47
637.2	54.42
637.4	53.62
637.6	52.97
637.8	52.89
638.0	52.51
638.2	51.94
638.4	51.26
638.6	51.41
638.8	51.53
639.0	51.46
639.2	50.90
639.4	50.30
639.6	49.49
639.8	49.58
640.0	49.62
640.2	49.11
640.4	48.50
640.6	48.16
640.8	47.42
641.0	47.79
641.2	47.89
641.4	47.16
641.6	46.82
641.8	46.44
642.0	45.19
642.2	45.35
642.4	45.51
642.6	45.18
642.8	45.60
643.0	45.38
643.2	44.20
643.4	43.91
643.6	43.42
643.8	42.71
644.0	42.75
644.2	42.20
644.4	42.02
644.6	41.99
644.8	41.83
645.0	41.48
645.2	41.21
645.4	40.76
645.6	41.05
645.8	40.38
646.0	39.95
646.2	39.55
646.4	39.92
646.6	39.86
646.8	39.89
647.0	39.28
647.2	38.54
647.4	37.73
647.6	37.44
647.8	37.30
648.0	37.14
648.2	37.25
648.4	36.56
648.6	36.13
648.8	35.58
649.0	35.64
649.2	35.50
649.4	35.39
649.6	34.74
649.8	34.60
650.0	34.73
650.2	34.77
650.4	34.72
650.6	34.52
650.8	34.44
651.0	33.97
651.2	33.39
651.4	32.83
651.6	32.57
651.8	32.63
652.0	32.59
652.2	32.43
652.4	31.97
652.6	31.14
652.8	31.04
653.0	31.14
653.2	30.55
653.4	30.63
653.6	30.98
653.8	30.95
654.0	30.84
654.2	30.57
654.4	29.58
654.6	29.02
654.8	28.90
655.0	29.09
655.2	29.07
655.4	29.44
655.6	29.06
655.8	28.51
656.0	28.21
656.2	28.03
656.4	28.12
656.6	28.13
656.8	27.42
657.0	27.21
657.2	27.32
657.4	27.45
657.6	27.43
657.8	27.12
658.0	26.45
658.2	26.22
658.4	26.28
658.6	26.45
658.8	26.83
659.0	27.06
659.2	26.56
659.4	25.68
659.6	24.90
659.8	24.53
660.0	24.87
660.2	24.87
660.4	25.00
660.6	24.66
660.8	24.41
661.0	23.97
661.2	24.13
661.4	23.81
661.6	23.50
661.8	23.14
662.0	23.32
662.2	23.19
662.4	23.47
662.6	23.50
662.8	22.92
663.0	22.53
663.2	22.26
663.4	21.62
663.6	21.28
663.8	21.20
664.0	21.46
664.2	21.90
664.4	21.92
664.6	21.40
664.8	21.13
665.0	20.45
665.2	20.30
665.4	20.43
665.6	20.55
665.8	20.41
666.0	20.69
666.2	20.60
666.4	20.53
666.6	20.49
666.8	20.34
667.0	19.85
667.2	19.77
667.4	19.59
667.6	19.70
667.8	19.67
668.0	19.41
668.2	19.05
668.4	18.88
668.6	18.59
668.8	18.84
669.0	18.98
669.2	19.04
669.4	18.87
669.6	18.66
669.8	18.04
670.0	17.80
670.2	17.42
670.4	17.74
670.6	17.56
670.8	17.41
671.0	17.23
671.2	17.02
671.4	16.93
671.6	17.21
671.8	17.04
672.0	16.88
672.2	16.81
672.4	16.35
672.6	16.43
672.8	16.37
673.0	16.43
673.2	16.43
673.4	16.08
673.6	15.65
673.8	15.54
674.0	15.46
674.2	15.62
674.4	15.94
674.6	16.02
674.8	16.24
675.0	16.29
675.2	15.93
675.4	15.42
675.6	15.06
675.8	15.06
676.0	15.23
676.2	15.24
676.4	14.87
676.6	14.64
676.8	14.65
677.0	14.84
677.2	14.95
677.4	15.24
677.6	14.97
677.8	14.56
678.0	14.38
678.2	13.96
678.4	13.65
678.6	13.50
678.8	13.34
679.0	13.38
679.2	13.49
679.4	13.55
679.6	13.44
679.8	13.31
680.0	13.24

