Sample:	'20211010A(EM)
File name:	B-CDs 5 500.FDS
Run date:	'15:10:23, 06/08/2023
Operator:	Administrator
Comment:	'

Instrument
Model:	F-4700 FL Spectrophotometer
Serial number:	2019-001
ROM Version:	5J24010 00

Instrument parameters
Measurement type:	Wavelength scan
Scan mode:	Emission
Data mode:	Fluorescence
EX WL:	350.0 nm
EM  Start WL:	370.0 nm
EM  End WL:	680.0 nm
Scan speed:	1200 nm/min
Delay:	0.0 s
EX Slit:	10.0 nm
EM Slit:	10.0 nm
PMT Voltage:	470 V
Response:	0.002 s
Corrected spectra:	Off
Shutter control:	On

Processing performed
Savitsky-Golay smoothed
Smoothing order:	3
Number of points:	7
Number of times:	1

Peak integration
Integration method:	Rectangular
Sensitivity:	1
Threshold:	1.000

Peaks
No.	Start(nm)	Apex(nm)	End(nm)	Height(Data)	Valley(nm)	Valley(Data)
1	370.0	457.4	458.4	9381	458.4	9333
2	458.4	459.2	459.8	9387	459.8	9355
3	459.8	461.2	680.0	9382	680.0	48.04

Data points
nm	Data
370.0	10.54
370.2	10.60
370.4	10.85
370.6	11.13
370.8	11.15
371.0	11.15
371.2	11.32
371.4	10.84
371.6	10.93
371.8	11.09
372.0	11.31
372.2	11.65
372.4	11.72
372.6	11.41
372.8	11.49
373.0	11.60
373.2	11.89
373.4	12.53
373.6	12.66
373.8	12.56
374.0	12.38
374.2	12.08
374.4	12.19
374.6	12.40
374.8	12.95
375.0	13.29
375.2	13.60
375.4	13.72
375.6	14.04
375.8	13.79
376.0	14.20
376.2	14.13
376.4	14.16
376.6	14.18
376.8	14.54
377.0	14.72
377.2	14.94
377.4	14.99
377.6	15.17
377.8	15.39
378.0	15.46
378.2	15.73
378.4	15.95
378.6	16.04
378.8	16.57
379.0	16.81
379.2	16.67
379.4	16.67
379.6	17.08
379.8	17.39
380.0	18.13
380.2	18.40
380.4	19.29
380.6	19.27
380.8	19.51
381.0	19.96
381.2	20.61
381.4	20.64
381.6	21.58
381.8	21.73
382.0	22.00
382.2	22.80
382.4	23.45
382.6	23.45
382.8	24.00
383.0	24.29
383.2	24.88
383.4	26.08
383.6	26.84
383.8	27.85
384.0	28.69
384.2	28.74
384.4	29.41
384.6	30.50
384.8	31.40
385.0	33.01
385.2	34.48
385.4	35.23
385.6	36.19
385.8	36.80
386.0	37.01
386.2	37.82
386.4	38.82
386.6	40.23
386.8	42.25
387.0	43.91
387.2	45.69
387.4	47.06
387.6	48.02
387.8	49.16
388.0	51.28
388.2	52.62
388.4	54.85
388.6	56.34
388.8	57.39
389.0	58.70
389.2	60.91
389.4	63.06
389.6	66.10
389.8	68.13
390.0	70.08
390.2	72.73
390.4	75.15
390.6	78.40
390.8	81.93
391.0	85.09
391.2	88.27
391.4	90.98
391.6	93.46
391.8	96.22
392.0	99.10
392.2	102.7
392.4	106.3
392.6	110.2
392.8	115.3
393.0	120.1
393.2	124.9
393.4	129.3
393.6	131.7
393.8	136.6
394.0	142.0
394.2	146.8
394.4	152.5
394.6	157.1
394.8	161.0
395.0	168.0
395.2	174.0
395.4	181.0
395.6	188.2
395.8	194.8
396.0	201.0
396.2	208.6
396.4	215.8
396.6	223.3
396.8	229.0
397.0	236.7
397.2	244.6
397.4	255.6
397.6	267.3
397.8	277.5
398.0	285.1
398.2	294.4
398.4	301.3
398.6	311.4
398.8	322.0
399.0	332.8
399.2	345.1
399.4	358.9
399.6	370.7
399.8	383.3
400.0	396.1
400.2	410.4
400.4	424.9
400.6	442.3
400.8	458.2
401.0	472.4
401.2	487.6
401.4	502.7
401.6	515.6
401.8	531.5
402.0	548.3
402.2	564.6
402.4	583.5
402.6	602.9
402.8	621.3
403.0	639.4
403.2	659.3
403.4	679.9
403.6	699.8
403.8	720.0
404.0	740.3
404.2	758.3
404.4	776.8
404.6	802.0
404.8	828.1
405.0	854.3
405.2	882.8
405.4	909.3
405.6	932.6
405.8	957.3
406.0	985.3
406.2	1007
406.4	1032
406.6	1062
406.8	1090
407.0	1123
407.2	1156
407.4	1185
407.6	1214
407.8	1242
408.0	1274
408.2	1307
408.4	1342
408.6	1377
408.8	1409
409.0	1442
409.2	1477
409.4	1507
409.6	1544
409.8	1583
410.0	1620
410.2	1659
410.4	1699
410.6	1737
410.8	1780
411.0	1824
411.2	1864
411.4	1906
411.6	1946
411.8	1981
412.0	2024
412.2	2060
412.4	2103
412.6	2151
412.8	2196
413.0	2233
413.2	2277
413.4	2321
413.6	2367
413.8	2422
414.0	2470
414.2	2512
414.4	2558
414.6	2610
414.8	2658
415.0	2711
415.2	2756
415.4	2805
415.6	2854
415.8	2907
416.0	2961
416.2	3009
416.4	3060
416.6	3110
416.8	3158
417.0	3204
417.2	3249
417.4	3292
417.6	3349
417.8	3406
418.0	3463
418.2	3512
418.4	3562
418.6	3616
418.8	3673
419.0	3730
419.2	3779
419.4	3826
419.6	3882
419.8	3942
420.0	4006
420.2	4065
420.4	4117
420.6	4168
420.8	4218
421.0	4263
421.2	4316
421.4	4369
421.6	4424
421.8	4485
422.0	4543
422.2	4605
422.4	4660
422.6	4711
422.8	4760
423.0	4813
423.2	4863
423.4	4915
423.6	4958
423.8	5013
424.0	5066
424.2	5136
424.4	5195
424.6	5245
424.8	5293
425.0	5344
425.2	5390
425.4	5443
425.6	5488
425.8	5535
426.0	5591
426.2	5647
426.4	5711
426.6	5763
426.8	5802
427.0	5847
427.2	5896
427.4	5954
427.6	6013
427.8	6069
428.0	6107
428.2	6156
428.4	6197
428.6	6248
428.8	6281
429.0	6326
429.2	6364
429.4	6418
429.6	6468
429.8	6518
430.0	6563
430.2	6614
430.4	6660
430.6	6711
430.8	6753
431.0	6789
431.2	6833
431.4	6882
431.6	6931
431.8	6969
432.0	7004
432.2	7039
432.4	7084
432.6	7135
432.8	7180
433.0	7215
433.2	7244
433.4	7284
433.6	7327
433.8	7372
434.0	7411
434.2	7445
434.4	7469
434.6	7504
434.8	7532
435.0	7576
435.2	7616
435.4	7669
435.6	7710
435.8	7745
436.0	7760
436.2	7783
436.4	7806
436.6	7845
436.8	7872
437.0	7904
437.2	7934
437.4	7964
437.6	7997
437.8	8026
438.0	8047
438.2	8079
438.4	8108
438.6	8138
438.8	8177
439.0	8209
439.2	8232
439.4	8251
439.6	8256
439.8	8272
440.0	8295
440.2	8331
440.4	8364
440.6	8389
440.8	8402
441.0	8422
441.2	8439
441.4	8458
441.6	8490
441.8	8519
442.0	8552
442.2	8591
442.4	8614
442.6	8626
442.8	8642
443.0	8653
443.2	8671
443.4	8694
443.6	8705
443.8	8738
444.0	8768
444.2	8780
444.4	8786
444.6	8800
444.8	8812
445.0	8840
445.2	8871
445.4	8883
445.6	8891
445.8	8903
446.0	8913
446.2	8911
446.4	8922
446.6	8936
446.8	8949
447.0	8968
447.2	8993
447.4	8999
447.6	9006
447.8	9010
448.0	9013
448.2	9017
448.4	9031
448.6	9050
448.8	9060
449.0	9074
449.2	9090
449.4	9110
449.6	9113
449.8	9119
450.0	9128
450.2	9126
450.4	9133
450.6	9155
450.8	9168
451.0	9184
451.2	9188
451.4	9184
451.6	9177
451.8	9187
452.0	9203
452.2	9225
452.4	9236
452.6	9250
452.8	9248
453.0	9249
453.2	9247
453.4	9257
453.6	9264
453.8	9263
454.0	9256
454.2	9253
454.4	9254
454.6	9285
454.8	9305
455.0	9320
455.2	9318
455.4	9317
455.6	9314
455.8	9324
456.0	9326
456.2	9343
456.4	9340
456.6	9346
456.8	9361
457.0	9357
457.2	9354
457.4	9381
457.6	9373
457.8	9367
458.0	9368
458.2	9348
458.4	9333
458.6	9355
458.8	9364
459.0	9377
459.2	9387
459.4	9380
459.6	9361
459.8	9355
460.0	9362
460.2	9365
460.4	9364
460.6	9365
460.8	9365
461.0	9368
461.2	9382
461.4	9377
461.6	9356
461.8	9341
462.0	9339
462.2	9346
462.4	9350
462.6	9342
462.8	9326
463.0	9328
463.2	9324
463.4	9333
463.6	9336
463.8	9336
464.0	9332
464.2	9332
464.4	9318
464.6	9297
464.8	9284
465.0	9272
465.2	9267
465.4	9259
465.6	9252
465.8	9241
466.0	9251
466.2	9256
466.4	9260
466.6	9251
466.8	9241
467.0	9230
467.2	9227
467.4	9208
467.6	9183
467.8	9177
468.0	9187
468.2	9180
468.4	9172
468.6	9154
468.8	9133
469.0	9126
469.2	9137
469.4	9125
469.6	9120
469.8	9108
470.0	9105
470.2	9098
470.4	9093
470.6	9068
470.8	9053
471.0	9035
471.2	9039
471.4	9038
471.6	9017
471.8	9001
472.0	8975
472.2	8964
472.4	8952
472.6	8929
472.8	8908
473.0	8899
473.2	8889
473.4	8894
473.6	8892
473.8	8882
474.0	8869
474.2	8844
474.4	8826
474.6	8811
474.8	8801
475.0	8802
475.2	8804
475.4	8782
475.6	8765
475.8	8739
476.0	8718
476.2	8704
476.4	8697
476.6	8686
476.8	8678
477.0	8665
477.2	8654
477.4	8629
477.6	8608
477.8	8603
478.0	8603
478.2	8592
478.4	8574
478.6	8547
478.8	8527
479.0	8521
479.2	8523
479.4	8507
479.6	8489
479.8	8473
480.0	8452
480.2	8436
480.4	8414
480.6	8394
480.8	8387
481.0	8379
481.2	8373
481.4	8360
481.6	8332
481.8	8310
482.0	8294
482.2	8283
482.4	8273
482.6	8277
482.8	8256
483.0	8239
483.2	8210
483.4	8197
483.6	8172
483.8	8171
484.0	8157
484.2	8141
484.4	8124
484.6	8110
484.8	8101
485.0	8090
485.2	8085
485.4	8053
485.6	8037
485.8	8011
486.0	7998
486.2	7977
486.4	7974
486.6	7960
486.8	7945
487.0	7916
487.2	7899
487.4	7877
487.6	7869
487.8	7858
488.0	7832
488.2	7802
488.4	7789
488.6	7783
488.8	7768
489.0	7740
489.2	7719
489.4	7701
489.6	7692
489.8	7684
490.0	7659
490.2	7636
490.4	7611
490.6	7588
490.8	7576
491.0	7559
491.2	7546
491.4	7537
491.6	7513
491.8	7485
492.0	7458
492.2	7435
492.4	7419
492.6	7406
492.8	7393
493.0	7366
493.2	7348
493.4	7326
493.6	7304
493.8	7285
494.0	7269
494.2	7245
494.4	7232
494.6	7211
494.8	7191
495.0	7171
495.2	7149
495.4	7131
495.6	7114
495.8	7092
496.0	7070
496.2	7044
496.4	7011
496.6	6990
496.8	6981
497.0	6972
497.2	6957
497.4	6927
497.6	6895
497.8	6863
498.0	6834
498.2	6812
498.4	6788
498.6	6764
498.8	6750
499.0	6729
499.2	6707
499.4	6685
499.6	6658
499.8	6624
500.0	6595
500.2	6573
500.4	6557
500.6	6551
500.8	6542
501.0	6520
501.2	6498
501.4	6476
501.6	6440
501.8	6408
502.0	6374
502.2	6348
502.4	6327
502.6	6310
502.8	6301
503.0	6281
503.2	6256
503.4	6228
503.6	6196
503.8	6176
504.0	6160
504.2	6136
504.4	6114
504.6	6091
504.8	6067
505.0	6043
505.2	6012
505.4	5994
505.6	5971
505.8	5953
506.0	5930
506.2	5902
506.4	5872
506.6	5851
506.8	5828
507.0	5810
507.2	5784
507.4	5757
507.6	5727
507.8	5703
508.0	5677
508.2	5654
508.4	5632
508.6	5611
508.8	5590
509.0	5572
509.2	5545
509.4	5526
509.6	5508
509.8	5485
510.0	5460
510.2	5438
510.4	5413
510.6	5395
510.8	5367
511.0	5345
511.2	5325
511.4	5293
511.6	5266
511.8	5244
512.0	5227
512.2	5222
512.4	5217
512.6	5178
512.8	5155
513.0	5122
513.2	5100
513.4	5082
513.6	5068
513.8	5040
514.0	5026
514.2	5006
514.4	4980
514.6	4952
514.8	4929
515.0	4908
515.2	4897
515.4	4879
515.6	4855
515.8	4826
516.0	4804
516.2	4789
516.4	4772
516.6	4743
516.8	4718
517.0	4691
517.2	4672
517.4	4664
517.6	4647
517.8	4622
518.0	4600
518.2	4580
518.4	4558
518.6	4537
518.8	4513
519.0	4487
519.2	4466
519.4	4449
519.6	4430
519.8	4411
520.0	4393
520.2	4372
520.4	4355
520.6	4342
520.8	4325
521.0	4305
521.2	4285
521.4	4260
521.6	4236
521.8	4211
522.0	4184
522.2	4160
522.4	4144
522.6	4129
522.8	4116
523.0	4098
523.2	4085
523.4	4065
523.6	4052
523.8	4031
524.0	4009
524.2	3983
524.4	3970
524.6	3947
524.8	3935
525.0	3918
525.2	3894
525.4	3873
525.6	3858
525.8	3840
526.0	3824
526.2	3805
526.4	3788
526.6	3763
526.8	3745
527.0	3734
527.2	3714
527.4	3700
527.6	3687
527.8	3658
528.0	3643
528.2	3626
528.4	3604
528.6	3593
528.8	3587
529.0	3570
529.2	3551
529.4	3528
529.6	3504
529.8	3490
530.0	3477
530.2	3459
530.4	3440
530.6	3418
530.8	3406
531.0	3391
531.2	3374
531.4	3355
531.6	3335
531.8	3318
532.0	3307
532.2	3297
532.4	3286
532.6	3265
532.8	3242
533.0	3224
533.2	3210
533.4	3201
533.6	3194
533.8	3181
534.0	3164
534.2	3149
534.4	3129
534.6	3107
534.8	3091
535.0	3073
535.2	3052
535.4	3035
535.6	3016
535.8	3000
536.0	2996
536.2	2988
536.4	2977
536.6	2961
536.8	2945
537.0	2928
537.2	2918
537.4	2904
537.6	2893
537.8	2875
538.0	2862
538.2	2852
538.4	2837
538.6	2820
538.8	2807
539.0	2785
539.2	2776
539.4	2767
539.6	2757
539.8	2740
540.0	2727
540.2	2706
540.4	2693
540.6	2677
540.8	2668
541.0	2655
541.2	2643
541.4	2634
541.6	2619
541.8	2604
542.0	2592
542.2	2577
542.4	2563
542.6	2550
542.8	2533
543.0	2514
543.2	2503
543.4	2493
543.6	2484
543.8	2472
544.0	2460
544.2	2445
544.4	2430
544.6	2411
544.8	2397
545.0	2385
545.2	2373
545.4	2366
545.6	2352
545.8	2337
546.0	2332
546.2	2327
546.4	2313
546.6	2301
546.8	2285
547.0	2268
547.2	2255
547.4	2247
547.6	2234
547.8	2224
548.0	2213
548.2	2203
548.4	2194
548.6	2191
548.8	2179
549.0	2165
549.2	2149
549.4	2135
549.6	2126
549.8	2118
550.0	2109
550.2	2099
550.4	2086
550.6	2071
550.8	2060
551.0	2047
551.2	2039
551.4	2026
551.6	2013
551.8	2005
552.0	1994
552.2	1983
552.4	1974
552.6	1959
552.8	1953
553.0	1946
553.2	1938
553.4	1929
553.6	1913
553.8	1896
554.0	1886
554.2	1873
554.4	1867
554.6	1865
554.8	1852
555.0	1840
555.2	1829
555.4	1822
555.6	1813
555.8	1808
556.0	1794
556.2	1779
556.4	1769
556.6	1763
556.8	1755
557.0	1749
557.2	1740
557.4	1729
557.6	1722
557.8	1712
558.0	1702
558.2	1690
558.4	1679
558.6	1671
558.8	1665
559.0	1659
559.2	1649
559.4	1638
559.6	1628
559.8	1624
560.0	1618
560.2	1615
560.4	1606
560.6	1593
560.8	1582
561.0	1569
561.2	1558
561.4	1551
561.6	1542
561.8	1530
562.0	1525
562.2	1518
562.4	1514
562.6	1505
562.8	1496
563.0	1486
563.2	1479
563.4	1474
563.6	1471
563.8	1458
564.0	1450
564.2	1438
564.4	1430
564.6	1427
564.8	1423
565.0	1415
565.2	1408
565.4	1397
565.6	1389
565.8	1381
566.0	1374
566.2	1368
566.4	1362
566.6	1355
566.8	1350
567.0	1343
567.2	1336
567.4	1328
567.6	1323
567.8	1315
568.0	1305
568.2	1299
568.4	1290
568.6	1285
568.8	1281
569.0	1273
569.2	1260
569.4	1254
569.6	1247
569.8	1241
570.0	1239
570.2	1232
570.4	1225
570.6	1220
570.8	1214
571.0	1209
571.2	1205
571.4	1193
571.6	1184
571.8	1175
572.0	1166
572.2	1160
572.4	1151
572.6	1146
572.8	1141
573.0	1138
573.2	1131
573.4	1126
573.6	1116
573.8	1110
574.0	1108
574.2	1107
574.4	1103
574.6	1098
574.8	1089
575.0	1077
575.2	1074
575.4	1069
575.6	1065
575.8	1060
576.0	1055
576.2	1048
576.4	1045
576.6	1036
576.8	1028
577.0	1018
577.2	1012
577.4	1007
577.6	1003
577.8	998.2
578.0	992.9
578.2	988.6
578.4	985.5
578.6	978.2
578.8	973.8
579.0	967.0
579.2	960.5
579.4	956.3
579.6	952.3
579.8	945.0
580.0	941.5
580.2	935.9
580.4	928.8
580.6	921.7
580.8	919.5
581.0	918.1
581.2	916.0
581.4	911.2
581.6	904.5
581.8	894.7
582.0	891.4
582.2	887.7
582.4	885.9
582.6	882.7
582.8	878.5
583.0	870.6
583.2	863.0
583.4	856.2
583.6	854.7
583.8	851.7
584.0	849.0
584.2	845.6
584.4	841.0
584.6	834.7
584.8	830.5
585.0	826.2
585.2	823.2
585.4	816.6
585.6	811.1
585.8	802.9
586.0	796.3
586.2	790.9
586.4	787.1
586.6	782.5
586.8	781.5
587.0	779.0
587.2	775.9
587.4	771.5
587.6	768.2
587.8	761.9
588.0	758.2
588.2	755.7
588.4	753.1
588.6	751.2
588.8	747.4
589.0	740.7
589.2	738.5
589.4	736.2
589.6	729.2
589.8	726.2
590.0	722.8
590.2	718.1
590.4	716.7
590.6	714.5
590.8	707.7
591.0	703.4
591.2	700.9
591.4	691.9
591.6	685.7
591.8	683.4
592.0	679.8
592.2	677.8
592.4	676.0
592.6	672.0
592.8	667.9
593.0	664.1
593.2	658.1
593.4	654.9
593.6	650.1
593.8	648.7
594.0	648.5
594.2	647.5
594.4	645.4
594.6	640.8
594.8	631.7
595.0	625.0
595.2	620.6
595.4	618.8
595.6	620.5
595.8	617.7
596.0	615.5
596.2	610.7
596.4	606.1
596.6	604.0
596.8	602.3
597.0	596.5
597.2	594.4
597.4	588.8
597.6	585.0
597.8	584.4
598.0	583.3
598.2	581.0
598.4	577.9
598.6	573.6
598.8	569.6
599.0	565.7
599.2	562.2
599.4	559.6
599.6	555.0
599.8	554.5
600.0	553.0
600.2	548.3
600.4	542.8
600.6	536.9
600.8	532.1
601.0	531.8
601.2	532.2
601.4	532.5
601.6	527.7
601.8	521.8
602.0	520.7
602.2	517.2
602.4	514.5
602.6	511.5
602.8	506.3
603.0	500.1
603.2	498.2
603.4	497.0
603.6	496.9
603.8	497.6
604.0	497.6
604.2	493.8
604.4	489.5
604.6	487.4
604.8	484.6
605.0	482.0
605.2	477.7
605.4	473.2
605.6	470.0
605.8	470.0
606.0	470.3
606.2	468.1
606.4	465.5
606.6	463.3
606.8	458.2
607.0	455.5
607.2	453.0
607.4	450.3
607.6	448.5
607.8	446.2
608.0	442.6
608.2	437.7
608.4	433.6
608.6	432.5
608.8	431.5
609.0	429.4
609.2	427.3
609.4	421.7
609.6	419.6
609.8	418.5
610.0	418.2
610.2	418.4
610.4	414.0
610.6	408.3
610.8	406.4
611.0	403.4
611.2	401.9
611.4	400.2
611.6	397.9
611.8	395.5
612.0	395.6
612.2	391.7
612.4	389.5
612.6	387.6
612.8	386.7
613.0	384.4
613.2	383.3
613.4	377.7
613.6	375.3
613.8	375.0
614.0	372.6
614.2	370.2
614.4	368.4
614.6	365.3
614.8	363.4
615.0	360.5
615.2	357.7
615.4	357.5
615.6	356.9
615.8	355.9
616.0	352.6
616.2	346.9
616.4	344.7
616.6	343.8
616.8	342.9
617.0	342.3
617.2	340.9
617.4	337.5
617.6	335.8
617.8	333.6
618.0	329.7
618.2	326.9
618.4	325.4
618.6	324.6
618.8	322.6
619.0	321.1
619.2	318.7
619.4	318.6
619.6	318.9
619.8	317.2
620.0	313.3
620.2	308.9
620.4	306.7
620.6	305.5
620.8	303.9
621.0	301.9
621.2	300.4
621.4	299.2
621.6	297.2
621.8	294.5
622.0	293.3
622.2	292.3
622.4	290.8
622.6	289.9
622.8	287.9
623.0	284.6
623.2	284.0
623.4	281.0
623.6	278.5
623.8	277.2
624.0	276.3
624.2	274.4
624.4	273.2
624.6	271.1
624.8	269.4
625.0	268.3
625.2	264.8
625.4	263.6
625.6	263.3
625.8	263.1
626.0	262.7
626.2	260.5
626.4	256.9
626.6	255.9
626.8	253.5
627.0	251.1
627.2	248.3
627.4	247.2
627.6	247.1
627.8	247.7
628.0	245.5
628.2	242.9
628.4	240.7
628.6	240.2
628.8	238.6
629.0	236.9
629.2	234.9
629.4	233.0
629.6	232.0
629.8	232.0
630.0	230.6
630.2	228.6
630.4	226.9
630.6	226.3
630.8	224.8
631.0	224.4
631.2	222.4
631.4	220.4
631.6	217.8
631.8	216.4
632.0	214.6
632.2	214.5
632.4	212.9
632.6	212.6
632.8	211.9
633.0	210.1
633.2	207.7
633.4	206.7
633.6	205.2
633.8	204.5
634.0	203.7
634.2	202.4
634.4	201.0
634.6	199.5
634.8	199.2
635.0	197.2
635.2	195.7
635.4	194.3
635.6	194.1
635.8	192.1
636.0	190.8
636.2	190.2
636.4	189.4
636.6	188.4
636.8	187.8
637.0	187.3
637.2	186.2
637.4	185.3
637.6	183.9
637.8	182.4
638.0	181.3
638.2	180.7
638.4	179.6
638.6	177.7
638.8	175.9
639.0	173.7
639.2	172.3
639.4	172.3
639.6	173.3
639.8	173.8
640.0	173.0
640.2	171.4
640.4	167.7
640.6	165.7
640.8	163.9
641.0	163.4
641.2	163.9
641.4	164.3
641.6	162.1
641.8	161.2
642.0	158.7
642.2	159.3
642.4	159.5
642.6	158.9
642.8	155.9
643.0	153.1
643.2	150.5
643.4	150.3
643.6	150.1
643.8	150.3
644.0	148.9
644.2	148.2
644.4	147.4
644.6	147.2
644.8	146.7
645.0	145.7
645.2	144.2
645.4	144.4
645.6	142.7
645.8	142.3
646.0	140.6
646.2	139.2
646.4	137.4
646.6	136.5
646.8	135.7
647.0	135.1
647.2	133.3
647.4	132.3
647.6	130.9
647.8	130.4
648.0	130.6
648.2	130.6
648.4	130.7
648.6	130.9
648.8	130.5
649.0	129.7
649.2	127.5
649.4	125.8
649.6	124.3
649.8	124.1
650.0	123.6
650.2	122.4
650.4	121.2
650.6	121.7
650.8	120.8
651.0	120.9
651.2	120.2
651.4	119.4
651.6	118.1
651.8	118.5
652.0	116.1
652.2	114.6
652.4	114.3
652.6	115.1
652.8	115.1
653.0	115.1
653.2	114.3
653.4	112.8
653.6	112.0
653.8	110.6
654.0	109.3
654.2	107.8
654.4	108.0
654.6	108.2
654.8	109.5
655.0	108.8
655.2	107.0
655.4	104.3
655.6	103.0
655.8	102.3
656.0	102.7
656.2	102.2
656.4	101.1
656.6	100.4
656.8	100.1
657.0	99.52
657.2	99.03
657.4	97.67
657.6	96.38
657.8	95.53
658.0	95.21
658.2	94.80
658.4	95.10
658.6	95.39
658.8	95.20
659.0	94.42
659.2	93.75
659.4	92.83
659.6	91.69
659.8	91.45
660.0	90.97
660.2	90.21
660.4	89.67
660.6	89.75
660.8	88.92
661.0	87.58
661.2	86.82
661.4	85.70
661.6	85.57
661.8	85.03
662.0	84.47
662.2	83.61
662.4	83.50
662.6	83.39
662.8	83.97
663.0	82.77
663.2	82.50
663.4	82.40
663.6	81.74
663.8	81.21
664.0	80.74
664.2	79.64
664.4	79.21
664.6	78.79
664.8	78.43
665.0	78.28
665.2	78.13
665.4	77.49
665.6	75.83
665.8	75.36
666.0	75.85
666.2	75.53
666.4	75.60
666.6	75.67
666.8	73.94
667.0	72.99
667.2	72.33
667.4	71.75
667.6	71.93
667.8	72.54
668.0	71.67
668.2	70.68
668.4	70.28
668.6	70.89
668.8	70.27
669.0	69.02
669.2	67.32
669.4	67.16
669.6	67.84
669.8	67.94
670.0	66.43
670.2	65.41
670.4	65.14
670.6	65.50
670.8	65.73
671.0	65.01
671.2	63.24
671.4	62.75
671.6	62.65
671.8	62.61
672.0	62.93
672.2	62.53
672.4	61.63
672.6	61.43
672.8	60.29
673.0	59.81
673.2	59.72
673.4	59.62
673.6	59.63
673.8	59.48
674.0	59.07
674.2	58.40
674.4	57.59
674.6	57.28
674.8	56.98
675.0	56.39
675.2	56.50
675.4	56.14
675.6	55.83
675.8	55.68
676.0	56.13
676.2	55.97
676.4	55.17
676.6	53.97
676.8	52.99
677.0	53.00
677.2	53.46
677.4	53.03
677.6	52.51
677.8	51.61
678.0	50.39
678.2	50.72
678.4	50.79
678.6	50.26
678.8	50.38
679.0	50.60
679.2	49.94
679.4	50.46
679.6	50.40
679.8	49.70
680.0	48.04

