Sample:	'20211010A(EM)
File name:	B-CDs 2.FDS
Run date:	'14:49:15, 06/08/2023
Operator:	Administrator
Comment:	'

Instrument
Model:	F-4700 FL Spectrophotometer
Serial number:	2019-001
ROM Version:	5J24010 00

Instrument parameters
Measurement type:	Wavelength scan
Scan mode:	Emission
Data mode:	Fluorescence
EX WL:	350.0 nm
EM  Start WL:	370.0 nm
EM  End WL:	680.0 nm
Scan speed:	1200 nm/min
Delay:	0.0 s
EX Slit:	10.0 nm
EM Slit:	10.0 nm
PMT Voltage:	515 V
Response:	0.002 s
Corrected spectra:	Off
Shutter control:	On

Processing performed
Savitsky-Golay smoothed
Smoothing order:	3
Number of points:	7
Number of times:	1

Peak integration
Integration method:	Rectangular
Sensitivity:	1
Threshold:	1.000

Peaks
No.	Start(nm)	Apex(nm)	End(nm)	Height(Data)	Valley(nm)	Valley(Data)
1	370.0	377.2	383.6	2.252	383.6	1.011
2	383.6	486.2	487.0	821.8	487.0	810.4
3	487.0	492.4	493.0	856.3	493.0	848.4
4	493.0	494.8	495.8	867.1	495.8	853.6
5	495.8	496.8	497.8	865.6	497.8	850.9
6	497.8	499.2	501.2	859.8	501.2	854.0
7	501.2	502.0	504.8	860.7	504.8	841.1
8	504.8	505.6	605.8	848.5	605.8	140.3
9	605.8	606.4	637.6	143.5	637.6	56.90
10	637.6	638.2	646.2	58.53	646.2	42.85
11	646.2	647.0	662.0	45.82	662.0	25.04
12	662.0	662.8	664.2	27.05	664.2	24.22
13	664.2	665.0	665.8	25.57	665.8	22.64
14	665.8	666.4	672.4	24.09	672.4	18.46
15	672.4	673.2	675.8	19.63	675.8	15.90

Data points
nm	Data
370.0	1.094
370.2	1.233
370.4	1.390
370.6	1.511
370.8	1.466
371.0	1.356
371.2	1.223
371.4	1.237
371.6	1.472
371.8	1.663
372.0	1.760
372.2	1.553
372.4	1.113
372.6	0.906
372.8	0.927
373.0	1.011
373.2	1.445
373.4	1.701
373.6	1.543
373.8	1.520
374.0	1.237
374.2	1.193
374.4	1.493
374.6	1.740
374.8	1.558
375.0	1.542
375.2	1.247
375.4	1.241
375.6	1.244
375.8	1.288
376.0	1.346
376.2	1.280
376.4	1.165
376.6	1.484
376.8	1.604
377.0	1.845
377.2	2.252
377.4	1.944
377.6	1.632
377.8	1.532
378.0	1.382
378.2	1.409
378.4	1.702
378.6	1.886
378.8	2.089
379.0	2.150
379.2	2.121
379.4	1.936
379.6	1.705
379.8	1.724
380.0	1.749
380.2	1.903
380.4	1.974
380.6	1.770
380.8	1.317
381.0	1.383
381.2	1.255
381.4	1.518
381.6	1.529
381.8	1.390
382.0	1.237
382.2	1.272
382.4	1.037
382.6	1.218
382.8	1.212
383.0	1.215
383.2	1.256
383.4	1.224
383.6	1.011
383.8	1.127
384.0	1.277
384.2	1.230
384.4	1.413
384.6	1.802
384.8	1.621
385.0	1.672
385.2	1.597
385.4	1.342
385.6	1.466
385.8	1.729
386.0	1.553
386.2	1.539
386.4	1.591
386.6	1.588
386.8	1.640
387.0	1.961
387.2	2.120
387.4	2.120
387.6	2.077
387.8	1.770
388.0	1.422
388.2	1.640
388.4	1.586
388.6	1.556
388.8	1.462
389.0	1.664
389.2	1.879
389.4	2.385
389.6	2.483
389.8	2.472
390.0	2.155
390.2	2.270
390.4	2.180
390.6	2.040
390.8	1.956
391.0	1.824
391.2	1.671
391.4	1.843
391.6	2.258
391.8	2.490
392.0	2.538
392.2	2.522
392.4	2.251
392.6	1.908
392.8	1.837
393.0	1.887
393.2	1.927
393.4	2.178
393.6	2.426
393.8	2.596
394.0	2.567
394.2	2.585
394.4	2.794
394.6	2.758
394.8	2.621
395.0	2.667
395.2	2.702
395.4	2.617
395.6	3.050
395.8	3.164
396.0	3.127
396.2	3.201
396.4	3.413
396.6	3.220
396.8	3.273
397.0	3.159
397.2	3.001
397.4	3.019
397.6	2.952
397.8	2.978
398.0	3.043
398.2	3.171
398.4	3.243
398.6	3.590
398.8	3.366
399.0	3.243
399.2	3.655
399.4	3.772
399.6	4.027
399.8	4.035
400.0	4.013
400.2	4.099
400.4	4.742
400.6	4.913
400.8	4.922
401.0	4.659
401.2	4.560
401.4	4.655
401.6	4.831
401.8	4.965
402.0	5.188
402.2	5.152
402.4	4.963
402.6	4.904
402.8	5.316
403.0	5.634
403.2	5.568
403.4	5.446
403.6	5.598
403.8	6.137
404.0	6.758
404.2	7.272
404.4	7.013
404.6	7.223
404.8	7.297
405.0	7.732
405.2	7.360
405.4	7.620
405.6	7.930
405.8	8.546
406.0	8.813
406.2	9.419
406.4	9.264
406.6	9.236
406.8	9.513
407.0	9.883
407.2	10.16
407.4	10.60
407.6	11.03
407.8	11.43
408.0	11.77
408.2	12.24
408.4	12.16
408.6	12.39
408.8	12.73
409.0	13.10
409.2	13.12
409.4	14.00
409.6	14.10
409.8	15.13
410.0	15.71
410.2	15.70
410.4	16.40
410.6	17.94
410.8	18.12
411.0	18.55
411.2	19.29
411.4	19.39
411.6	20.40
411.8	21.40
412.0	21.51
412.2	22.00
412.4	23.07
412.6	23.38
412.8	24.30
413.0	25.24
413.2	25.92
413.4	26.45
413.6	27.81
413.8	27.97
414.0	29.12
414.2	30.40
414.4	31.85
414.6	32.96
414.8	33.93
415.0	33.53
415.2	33.49
415.4	35.07
415.6	37.23
415.8	38.74
416.0	39.58
416.2	40.41
416.4	41.29
416.6	43.92
416.8	46.09
417.0	47.20
417.2	47.57
417.4	48.88
417.6	50.40
417.8	51.36
418.0	53.01
418.2	54.38
418.4	55.70
418.6	58.16
418.8	60.97
419.0	62.27
419.2	64.47
419.4	66.19
419.6	67.04
419.8	67.59
420.0	69.65
420.2	69.75
420.4	71.70
420.6	73.56
420.8	75.36
421.0	77.10
421.2	79.62
421.4	80.93
421.6	83.26
421.8	85.38
422.0	88.60
422.2	90.60
422.4	93.06
422.6	93.72
422.8	95.53
423.0	98.04
423.2	101.1
423.4	104.0
423.6	107.1
423.8	108.0
424.0	108.9
424.2	110.4
424.4	113.5
424.6	116.9
424.8	119.2
425.0	121.8
425.2	122.7
425.4	124.2
425.6	127.2
425.8	129.1
426.0	130.9
426.2	133.7
426.4	137.1
426.6	139.8
426.8	142.3
427.0	144.1
427.2	147.2
427.4	151.2
427.6	153.7
427.8	155.9
428.0	156.4
428.2	157.2
428.4	160.5
428.6	163.0
428.8	165.1
429.0	168.5
429.2	171.2
429.4	174.8
429.6	178.1
429.8	176.7
430.0	176.5
430.2	177.6
430.4	178.4
430.6	182.3
430.8	186.0
431.0	189.2
431.2	193.6
431.4	198.0
431.6	198.5
431.8	199.1
432.0	199.7
432.2	202.5
432.4	207.3
432.6	211.1
432.8	213.3
433.0	214.6
433.2	217.2
433.4	219.4
433.6	222.9
433.8	224.9
434.0	225.8
434.2	229.4
434.4	233.8
434.6	235.3
434.8	235.8
435.0	235.9
435.2	236.0
435.4	240.8
435.6	243.2
435.8	247.4
436.0	250.1
436.2	253.4
436.4	257.0
436.6	259.0
436.8	256.9
437.0	255.9
437.2	256.1
437.4	257.1
437.6	260.1
437.8	265.9
438.0	270.3
438.2	272.2
438.4	275.4
438.6	275.6
438.8	277.7
439.0	281.2
439.2	283.8
439.4	283.5
439.6	285.9
439.8	286.9
440.0	288.5
440.2	290.8
440.4	293.5
440.6	297.0
440.8	301.5
441.0	301.9
441.2	303.1
441.4	303.8
441.6	303.1
441.8	307.9
442.0	310.4
442.2	310.3
442.4	314.8
442.6	316.4
442.8	318.2
443.0	320.2
443.2	321.8
443.4	323.0
443.6	326.4
443.8	327.4
444.0	329.4
444.2	330.1
444.4	331.1
444.6	333.9
444.8	337.0
445.0	337.5
445.2	337.9
445.4	339.0
445.6	340.7
445.8	344.7
446.0	348.4
446.2	350.8
446.4	353.1
446.6	354.5
446.8	355.7
447.0	358.4
447.2	357.9
447.4	357.7
447.6	356.7
447.8	359.6
448.0	361.5
448.2	366.5
448.4	370.2
448.6	371.5
448.8	370.8
449.0	371.2
449.2	373.3
449.4	374.5
449.6	376.9
449.8	381.0
450.0	382.5
450.2	383.9
450.4	389.2
450.6	391.8
450.8	393.2
451.0	395.1
451.2	393.2
451.4	393.7
451.6	397.0
451.8	400.7
452.0	402.5
452.2	403.6
452.4	405.5
452.6	405.6
452.8	409.8
453.0	412.7
453.2	413.2
453.4	414.0
453.6	416.5
453.8	416.1
454.0	424.2
454.2	432.7
454.4	435.2
454.6	438.2
454.8	438.3
455.0	435.1
455.2	437.0
455.4	439.7
455.6	442.1
455.8	445.7
456.0	451.9
456.2	457.2
456.4	458.6
456.6	458.1
456.8	457.3
457.0	456.1
457.2	458.4
457.4	463.9
457.6	467.6
457.8	470.2
458.0	471.5
458.2	475.6
458.4	476.6
458.6	480.9
458.8	484.1
459.0	485.5
459.2	483.6
459.4	487.6
459.6	490.5
459.8	495.6
460.0	499.9
460.2	501.5
460.4	501.9
460.6	508.3
460.8	510.6
461.0	514.9
461.2	515.2
461.4	515.6
461.6	520.0
461.8	526.4
462.0	526.0
462.2	529.6
462.4	529.0
462.6	531.1
462.8	535.1
463.0	541.6
463.2	543.8
463.4	547.3
463.6	551.7
463.8	557.6
464.0	561.4
464.2	565.3
464.4	567.8
464.6	565.5
464.8	564.8
465.0	565.1
465.2	565.6
465.4	568.9
465.6	577.8
465.8	582.5
466.0	584.5
466.2	585.0
466.4	586.2
466.6	591.2
466.8	596.5
467.0	598.4
467.2	601.2
467.4	603.0
467.6	607.3
467.8	612.6
468.0	614.6
468.2	613.7
468.4	615.3
468.6	617.1
468.8	621.1
469.0	624.7
469.2	630.5
469.4	633.2
469.6	634.2
469.8	636.6
470.0	641.3
470.2	642.0
470.4	644.1
470.6	642.2
470.8	643.7
471.0	649.3
471.2	657.6
471.4	660.5
471.6	658.9
471.8	659.0
472.0	662.7
472.2	666.2
472.4	671.1
472.6	673.0
472.8	672.3
473.0	679.7
473.2	683.0
473.4	687.1
473.6	687.1
473.8	686.9
474.0	685.7
474.2	689.1
474.4	693.7
474.6	700.4
474.8	705.4
475.0	710.0
475.2	709.8
475.4	710.0
475.6	712.4
475.8	713.2
476.0	716.0
476.2	717.5
476.4	719.5
476.6	718.9
476.8	717.7
477.0	720.4
477.2	721.4
477.4	728.2
477.6	738.1
477.8	740.8
478.0	739.7
478.2	739.3
478.4	736.1
478.6	736.7
478.8	740.2
479.0	742.7
479.2	748.4
479.4	747.3
479.6	751.3
479.8	751.9
480.0	757.9
480.2	765.1
480.4	773.9
480.6	773.8
480.8	774.3
481.0	769.6
481.2	770.9
481.4	772.2
481.6	775.9
481.8	780.1
482.0	779.8
482.2	781.5
482.4	780.7
482.6	781.2
482.8	786.6
483.0	791.8
483.2	794.7
483.4	794.8
483.6	791.3
483.8	790.8
484.0	797.9
484.2	803.1
484.4	809.3
484.6	811.3
484.8	811.4
485.0	809.9
485.2	813.0
485.4	809.7
485.6	810.8
485.8	813.9
486.0	820.0
486.2	821.8
486.4	821.6
486.6	818.4
486.8	815.0
487.0	810.4
487.2	814.3
487.4	817.3
487.6	823.6
487.8	830.6
488.0	831.0
488.2	828.6
488.4	828.6
488.6	827.4
488.8	829.8
489.0	830.7
489.2	831.3
489.4	834.5
489.6	840.2
489.8	841.5
490.0	844.0
490.2	846.6
490.4	847.8
490.6	846.8
490.8	851.6
491.0	849.1
491.2	851.1
491.4	852.3
491.6	852.3
491.8	851.3
492.0	855.2
492.2	854.0
492.4	856.3
492.6	851.3
492.8	849.0
493.0	848.4
493.2	852.6
493.4	854.1
493.6	856.4
493.8	853.2
494.0	851.7
494.2	854.4
494.4	862.4
494.6	865.2
494.8	867.1
495.0	866.3
495.2	860.0
495.4	854.1
495.6	855.4
495.8	853.6
496.0	858.2
496.2	863.0
496.4	864.2
496.6	862.5
496.8	865.6
497.0	862.2
497.2	859.5
497.4	857.4
497.6	853.1
497.8	850.9
498.0	854.1
498.2	857.5
498.4	856.8
498.6	859.2
498.8	858.9
499.0	857.0
499.2	859.8
499.4	859.7
499.6	857.3
499.8	859.1
500.0	856.1
500.2	855.6
500.4	859.0
500.6	856.2
500.8	857.8
501.0	858.1
501.2	854.0
501.4	856.4
501.6	855.2
501.8	857.2
502.0	860.7
502.2	858.1
502.4	858.5
502.6	859.5
502.8	855.2
503.0	855.1
503.2	852.1
503.4	848.4
503.6	844.8
503.8	843.4
504.0	841.5
504.2	841.5
504.4	843.1
504.6	842.1
504.8	841.1
505.0	844.8
505.2	846.2
505.4	847.1
505.6	848.5
505.8	842.1
506.0	837.6
506.2	837.1
506.4	832.8
506.6	833.8
506.8	837.8
507.0	841.6
507.2	845.2
507.4	843.3
507.6	831.8
507.8	825.7
508.0	823.1
508.2	829.6
508.4	834.9
508.6	833.0
508.8	828.7
509.0	827.5
509.2	823.5
509.4	824.1
509.6	820.1
509.8	813.9
510.0	812.8
510.2	815.7
510.4	812.6
510.6	812.3
510.8	811.1
511.0	809.0
511.2	809.6
511.4	810.0
511.6	809.5
511.8	809.7
512.0	808.6
512.2	805.8
512.4	801.6
512.6	796.7
512.8	794.8
513.0	793.1
513.2	795.0
513.4	797.2
513.6	795.8
513.8	794.0
514.0	793.0
514.2	789.9
514.4	789.3
514.6	790.8
514.8	787.9
515.0	783.6
515.2	781.7
515.4	780.1
515.6	777.9
515.8	780.0
516.0	781.6
516.2	777.6
516.4	772.3
516.6	768.4
516.8	767.4
517.0	765.9
517.2	767.6
517.4	765.6
517.6	766.2
517.8	766.8
518.0	768.9
518.2	766.6
518.4	760.4
518.6	755.8
518.8	756.1
519.0	754.1
519.2	751.1
519.4	752.5
519.6	751.3
519.8	752.0
520.0	756.1
520.2	754.1
520.4	748.8
520.6	741.4
520.8	730.4
521.0	726.4
521.2	730.0
521.4	735.8
521.6	740.0
521.8	736.8
522.0	728.1
522.2	722.5
522.4	721.4
522.6	724.5
522.8	728.7
523.0	728.1
523.2	723.5
523.4	720.4
523.6	715.2
523.8	716.6
524.0	717.5
524.2	714.3
524.4	712.8
524.6	712.7
524.8	712.2
525.0	713.2
525.2	709.7
525.4	704.6
525.6	701.2
525.8	696.3
526.0	694.0
526.2	694.7
526.4	694.1
526.6	689.9
526.8	689.1
527.0	687.7
527.2	686.9
527.4	690.4
527.6	690.0
527.8	688.5
528.0	687.7
528.2	688.2
528.4	689.8
528.6	684.6
528.8	678.4
529.0	673.6
529.2	673.4
529.4	674.8
529.6	673.0
529.8	667.4
530.0	664.7
530.2	662.8
530.4	667.4
530.6	668.4
530.8	664.2
531.0	659.5
531.2	655.0
531.4	651.8
531.6	652.4
531.8	653.2
532.0	653.3
532.2	651.3
532.4	644.6
532.6	640.3
532.8	639.8
533.0	638.7
533.2	639.8
533.4	642.4
533.6	641.8
533.8	639.6
534.0	634.9
534.2	630.4
534.4	626.7
534.6	626.2
534.8	625.7
535.0	629.2
535.2	626.6
535.4	624.5
535.6	623.0
535.8	619.4
536.0	615.4
536.2	617.4
536.4	613.2
536.6	610.5
536.8	612.4
537.0	612.8
537.2	608.9
537.4	605.4
537.6	601.9
537.8	602.1
538.0	602.0
538.2	603.8
538.4	599.2
538.6	596.1
538.8	592.9
539.0	591.8
539.2	589.2
539.4	590.0
539.6	589.2
539.8	585.5
540.0	581.9
540.2	578.9
540.4	578.0
540.6	580.2
540.8	580.5
541.0	575.5
541.2	572.0
541.4	568.2
541.6	567.6
541.8	568.0
542.0	567.0
542.2	567.3
542.4	563.8
542.6	561.2
542.8	558.0
543.0	554.4
543.2	552.6
543.4	553.6
543.6	553.9
543.8	554.5
544.0	553.5
544.2	551.5
544.4	548.5
544.6	545.6
544.8	543.2
545.0	537.4
545.2	533.2
545.4	532.3
545.6	533.3
545.8	533.0
546.0	530.6
546.2	528.8
546.4	527.4
546.6	529.1
546.8	530.2
547.0	527.0
547.2	521.2
547.4	519.4
547.6	513.1
547.8	511.0
548.0	508.7
548.2	507.7
548.4	508.7
548.6	508.3
548.8	505.7
549.0	503.9
549.2	499.9
549.4	495.8
549.6	497.0
549.8	496.7
550.0	497.3
550.2	495.4
550.4	493.0
550.6	489.6
550.8	486.9
551.0	482.3
551.2	481.6
551.4	480.4
551.6	482.5
551.8	483.1
552.0	478.3
552.2	473.4
552.4	475.1
552.6	473.1
552.8	472.4
553.0	470.9
553.2	468.0
553.4	466.2
553.6	466.4
553.8	462.3
554.0	460.4
554.2	457.9
554.4	452.7
554.6	451.3
554.8	450.7
555.0	449.0
555.2	451.3
555.4	450.9
555.6	445.8
555.8	447.6
556.0	445.1
556.2	442.8
556.4	441.6
556.6	436.6
556.8	431.6
557.0	431.3
557.2	429.6
557.4	430.5
557.6	433.4
557.8	432.5
558.0	431.1
558.2	426.9
558.4	423.9
558.6	423.6
558.8	424.4
559.0	421.5
559.2	416.1
559.4	410.7
559.6	408.4
559.8	410.9
560.0	413.0
560.2	412.0
560.4	406.9
560.6	402.1
560.8	398.0
561.0	396.3
561.2	397.5
561.4	398.2
561.6	396.5
561.8	394.2
562.0	392.1
562.2	388.2
562.4	386.8
562.6	387.3
562.8	389.1
563.0	386.2
563.2	385.0
563.4	381.1
563.6	377.2
563.8	375.4
564.0	376.7
564.2	372.3
564.4	371.8
564.6	371.3
564.8	368.8
565.0	369.1
565.2	369.6
565.4	368.1
565.6	367.2
565.8	367.8
566.0	366.5
566.2	364.7
566.4	361.7
566.6	359.0
566.8	358.3
567.0	357.6
567.2	355.6
567.4	352.4
567.6	350.2
567.8	349.4
568.0	349.4
568.2	350.2
568.4	349.6
568.6	349.7
568.8	348.4
569.0	344.7
569.2	341.4
569.4	339.7
569.6	338.3
569.8	336.4
570.0	335.3
570.2	332.8
570.4	334.4
570.6	335.9
570.8	336.7
571.0	335.6
571.2	335.1
571.4	331.3
571.6	327.7
571.8	323.3
572.0	317.8
572.2	317.4
572.4	317.4
572.6	318.3
572.8	316.0
573.0	315.5
573.2	311.6
573.4	309.5
573.6	306.6
573.8	309.5
574.0	309.0
574.2	310.1
574.4	306.7
574.6	305.6
574.8	302.6
575.0	302.9
575.2	299.9
575.4	297.3
575.6	294.9
575.8	296.6
576.0	296.1
576.2	296.3
576.4	294.7
576.6	292.6
576.8	288.8
577.0	287.7
577.2	286.3
577.4	285.6
577.6	286.1
577.8	284.1
578.0	283.0
578.2	283.2
578.4	282.4
578.6	281.0
578.8	279.9
579.0	278.6
579.2	278.1
579.4	274.7
579.6	275.5
579.8	272.8
580.0	270.6
580.2	269.3
580.4	265.6
580.6	260.2
580.8	262.4
581.0	263.5
581.2	265.7
581.4	265.5
581.6	262.8
581.8	260.3
582.0	259.4
582.2	259.1
582.4	258.7
582.6	255.8
582.8	253.6
583.0	251.2
583.2	250.4
583.4	249.2
583.6	247.8
583.8	247.5
584.0	248.1
584.2	246.6
584.4	246.2
584.6	243.3
584.8	240.2
585.0	239.6
585.2	239.7
585.4	238.9
585.6	238.3
585.8	236.0
586.0	233.0
586.2	232.3
586.4	231.5
586.6	230.9
586.8	231.7
587.0	230.6
587.2	227.3
587.4	225.5
587.6	225.4
587.8	225.4
588.0	225.6
588.2	225.2
588.4	223.3
588.6	220.9
588.8	220.9
589.0	219.1
589.2	217.6
589.4	217.2
589.6	216.8
589.8	214.8
590.0	212.3
590.2	209.3
590.4	207.9
590.6	208.7
590.8	209.0
591.0	210.0
591.2	209.0
591.4	208.8
591.6	207.6
591.8	205.5
592.0	204.6
592.2	204.7
592.4	202.5
592.6	199.8
592.8	197.1
593.0	194.1
593.2	193.3
593.4	194.1
593.6	195.7
593.8	194.2
594.0	194.1
594.2	193.2
594.4	191.7
594.6	191.7
594.8	192.1
595.0	190.1
595.2	188.4
595.4	187.5
595.6	186.5
595.8	184.9
596.0	183.6
596.2	181.0
596.4	180.5
596.6	181.1
596.8	180.5
597.0	180.2
597.2	179.2
597.4	178.7
597.6	178.8
597.8	176.4
598.0	173.6
598.2	172.5
598.4	170.5
598.6	171.3
598.8	172.7
599.0	171.3
599.2	169.2
599.4	168.8
599.6	168.1
599.8	168.5
600.0	168.8
600.2	169.4
600.4	167.1
600.6	164.4
600.8	160.7
601.0	159.2
601.2	158.3
601.4	160.0
601.6	159.4
601.8	158.4
602.0	155.7
602.2	153.7
602.4	153.3
602.6	153.8
602.8	152.4
603.0	153.5
603.2	153.8
603.4	152.7
603.6	152.2
603.8	151.3
604.0	148.2
604.2	148.6
604.4	148.6
604.6	148.7
604.8	148.8
605.0	145.7
605.2	143.5
605.4	142.5
605.6	141.2
605.8	140.3
606.0	140.3
606.2	141.7
606.4	143.5
606.6	142.9
606.8	142.0
607.0	138.6
607.2	137.3
607.4	137.8
607.6	136.8
607.8	137.1
608.0	137.0
608.2	137.6
608.4	138.3
608.6	135.0
608.8	133.2
609.0	132.8
609.2	130.6
609.4	130.5
609.6	129.8
609.8	127.1
610.0	128.2
610.2	127.2
610.4	126.1
610.6	124.9
610.8	123.9
611.0	122.8
611.2	124.9
611.4	123.7
611.6	122.4
611.8	120.6
612.0	119.3
612.2	119.3
612.4	120.9
612.6	120.5
612.8	120.1
613.0	118.5
613.2	117.4
613.4	116.8
613.6	116.6
613.8	115.6
614.0	115.5
614.2	114.4
614.4	113.4
614.6	112.3
614.8	111.9
615.0	111.8
615.2	111.1
615.4	109.1
615.6	108.0
615.8	106.8
616.0	105.7
616.2	107.1
616.4	107.7
616.6	105.8
616.8	105.2
617.0	104.2
617.2	103.2
617.4	104.0
617.6	105.1
617.8	104.9
618.0	104.5
618.2	103.9
618.4	104.1
618.6	103.7
618.8	103.0
619.0	102.7
619.2	102.2
619.4	99.75
619.6	98.04
619.8	97.59
620.0	97.49
620.2	98.46
620.4	99.57
620.6	98.42
620.8	96.47
621.0	95.87
621.2	95.47
621.4	95.41
621.6	93.56
621.8	92.69
622.0	91.82
622.2	91.12
622.4	89.98
622.6	89.59
622.8	87.51
623.0	87.06
623.2	88.82
623.4	90.13
623.6	88.77
623.8	87.61
624.0	85.77
624.2	85.18
624.4	84.83
624.6	85.42
624.8	83.48
625.0	82.30
625.2	81.69
625.4	83.37
625.6	82.17
625.8	83.08
626.0	81.84
626.2	80.24
626.4	79.74
626.6	79.03
626.8	77.96
627.0	78.97
627.2	80.27
627.4	79.30
627.6	79.20
627.8	77.38
628.0	76.64
628.2	75.97
628.4	76.40
628.6	73.86
628.8	73.13
629.0	73.05
629.2	73.31
629.4	72.94
629.6	72.92
629.8	72.03
630.0	71.16
630.2	71.77
630.4	72.35
630.6	71.71
630.8	70.61
631.0	69.20
631.2	67.88
631.4	68.39
631.6	68.34
631.8	67.74
632.0	68.23
632.2	68.01
632.4	67.60
632.6	67.90
632.8	66.60
633.0	65.39
633.2	65.20
633.4	64.42
633.6	63.70
633.8	63.47
634.0	63.72
634.2	63.62
634.4	63.18
634.6	62.74
634.8	61.91
635.0	61.30
635.2	61.53
635.4	61.26
635.6	61.33
635.8	62.54
636.0	62.23
636.2	61.00
636.4	59.46
636.6	58.56
636.8	57.75
637.0	57.86
637.2	57.15
637.4	56.93
637.6	56.90
637.8	58.16
638.0	57.63
638.2	58.53
638.4	57.80
638.6	57.39
638.8	56.09
639.0	54.59
639.2	52.20
639.4	53.03
639.6	52.46
639.8	52.38
640.0	52.46
640.2	51.76
640.4	50.75
640.6	51.05
640.8	50.98
641.0	51.64
641.2	51.84
641.4	52.24
641.6	51.25
641.8	50.57
642.0	50.14
642.2	48.67
642.4	47.71
642.6	48.31
642.8	48.95
643.0	50.06
643.2	50.84
643.4	49.14
643.6	47.19
643.8	46.12
644.0	45.70
644.2	46.14
644.4	46.60
644.6	46.34
644.8	46.06
645.0	45.55
645.2	45.81
645.4	45.68
645.6	44.94
645.8	44.01
646.0	43.56
646.2	42.85
646.4	43.30
646.6	44.42
646.8	45.55
647.0	45.82
647.2	45.45
647.4	44.09
647.6	42.11
647.8	41.95
648.0	41.54
648.2	41.15
648.4	40.87
648.6	40.25
648.8	40.06
649.0	40.61
649.2	40.73
649.4	41.08
649.6	40.63
649.8	39.48
650.0	39.09
650.2	39.03
650.4	38.75
650.6	38.24
650.8	37.79
651.0	36.86
651.2	36.27
651.4	36.59
651.6	36.82
651.8	36.58
652.0	36.70
652.2	36.89
652.4	36.07
652.6	35.47
652.8	35.67
653.0	35.00
653.2	34.46
653.4	34.63
653.6	34.43
653.8	33.96
654.0	33.49
654.2	32.95
654.4	32.79
654.6	33.32
654.8	33.51
655.0	33.76
655.2	32.79
655.4	32.29
655.6	31.49
655.8	31.71
656.0	31.00
656.2	31.69
656.4	31.33
656.6	31.64
656.8	31.06
657.0	31.02
657.2	30.62
657.4	30.67
657.6	30.39
657.8	30.65
658.0	30.37
658.2	30.20
658.4	30.14
658.6	30.45
658.8	30.18
659.0	29.81
659.2	29.15
659.4	28.69
659.6	29.05
659.8	29.80
660.0	29.89
660.2	29.77
660.4	29.08
660.6	28.51
660.8	28.33
661.0	27.91
661.2	27.85
661.4	27.07
661.6	26.19
661.8	25.39
662.0	25.04
662.2	25.53
662.4	25.89
662.6	26.89
662.8	27.05
663.0	26.78
663.2	26.17
663.4	25.64
663.6	25.17
663.8	25.13
664.0	24.28
664.2	24.22
664.4	24.35
664.6	24.77
664.8	25.48
665.0	25.57
665.2	24.44
665.4	23.78
665.6	23.28
665.8	22.64
666.0	22.79
666.2	23.65
666.4	24.09
666.6	24.08
666.8	23.78
667.0	22.98
667.2	22.35
667.4	21.69
667.6	22.08
667.8	22.25
668.0	22.78
668.2	22.97
668.4	22.31
668.6	21.30
668.8	21.20
669.0	20.55
669.2	20.91
669.4	20.59
669.6	20.27
669.8	20.68
670.0	21.20
670.2	20.64
670.4	20.95
670.6	20.36
670.8	20.75
671.0	20.68
671.2	20.35
671.4	19.53
671.6	19.25
671.8	18.97
672.0	19.43
672.2	19.02
672.4	18.46
672.6	18.71
672.8	19.11
673.0	19.26
673.2	19.63
673.4	19.08
673.6	18.05
673.8	17.75
674.0	17.67
674.2	18.03
674.4	18.53
674.6	18.32
674.8	18.14
675.0	17.74
675.2	16.85
675.4	16.61
675.6	16.15
675.8	15.90
676.0	16.07
676.2	16.32
676.4	16.00
676.6	16.48
676.8	16.55
677.0	17.09
677.2	16.78
677.4	15.84
677.6	15.13
677.8	15.00
678.0	15.56
678.2	16.34
678.4	16.52
678.6	15.88
678.8	15.58
679.0	14.95
679.2	15.03
679.4	14.64
679.6	14.92
679.8	15.55
680.0	16.48

