Sample:	'20211010A(EM)
File name:	B-CDs 5.FDS
Run date:	'15:03:42, 06/08/2023
Operator:	Administrator
Comment:	'

Instrument
Model:	F-4700 FL Spectrophotometer
Serial number:	2019-001
ROM Version:	5J24010 00

Instrument parameters
Measurement type:	Wavelength scan
Scan mode:	Emission
Data mode:	Fluorescence
EX WL:	350.0 nm
EM  Start WL:	370.0 nm
EM  End WL:	680.0 nm
Scan speed:	1200 nm/min
Delay:	0.0 s
EX Slit:	10.0 nm
EM Slit:	10.0 nm
PMT Voltage:	510 V
Response:	0.002 s
Corrected spectra:	Off
Shutter control:	On

Processing performed
Savitsky-Golay smoothed
Smoothing order:	3
Number of points:	7
Number of times:	1

Peak integration
Integration method:	Rectangular
Sensitivity:	1
Threshold:	1.000

Peaks
No.	Start(nm)	Apex(nm)	End(nm)	Height(Data)	Valley(nm)	Valley(Data)
1	370.0	468.0	469.0	2190	469.0	2180
2	469.0	473.4	474.0	2266	474.0	2261
3	474.0	483.4	484.2	2340	484.2	2321
4	484.2	486.6	487.6	2352	487.6	2339
5	487.6	488.8	491.2	2362	491.2	2327
6	491.2	492.0	646.6	2347	646.6	109.3
7	646.6	646.8	664.8	110.5	664.8	62.61
8	664.8	665.4	675.0	65.66	675.0	46.27
9	675.0	676.0	680.0	47.82	680.0	41.36

Data points
nm	Data
370.0	5.855
370.2	4.929
370.4	4.612
370.6	4.624
370.8	4.341
371.0	4.495
371.2	4.332
371.4	4.554
371.6	4.508
371.8	4.782
372.0	4.654
372.2	4.741
372.4	4.575
372.6	4.681
372.8	4.837
373.0	4.928
373.2	5.227
373.4	5.311
373.6	5.118
373.8	4.973
374.0	4.823
374.2	5.015
374.4	5.030
374.6	4.661
374.8	4.487
375.0	4.539
375.2	4.548
375.4	4.813
375.6	4.753
375.8	4.629
376.0	4.818
376.2	4.812
376.4	4.763
376.6	4.277
376.8	4.340
377.0	4.587
377.2	4.863
377.4	5.087
377.6	5.062
377.8	4.850
378.0	4.848
378.2	4.853
378.4	4.518
378.6	4.500
378.8	4.463
379.0	4.899
379.2	5.122
379.4	5.181
379.6	5.033
379.8	4.651
380.0	4.642
380.2	4.833
380.4	4.888
380.6	4.868
380.8	5.275
381.0	5.121
381.2	5.161
381.4	5.135
381.6	4.999
381.8	4.862
382.0	5.333
382.2	5.381
382.4	5.503
382.6	5.680
382.8	5.863
383.0	5.630
383.2	5.419
383.4	4.945
383.6	4.970
383.8	5.062
384.0	5.249
384.2	5.211
384.4	5.230
384.6	5.175
384.8	5.396
385.0	5.794
385.2	5.722
385.4	5.686
385.6	5.846
385.8	5.622
386.0	5.331
386.2	5.266
386.4	5.314
386.6	5.613
386.8	6.125
387.0	6.429
387.2	6.154
387.4	5.867
387.6	5.849
387.8	5.938
388.0	6.223
388.2	6.335
388.4	6.243
388.6	6.038
388.8	6.113
389.0	6.262
389.2	6.600
389.4	6.532
389.6	6.863
389.8	7.114
390.0	7.283
390.2	7.102
390.4	6.795
390.6	6.589
390.8	6.755
391.0	7.346
391.2	7.540
391.4	7.561
391.6	7.524
391.8	7.487
392.0	7.390
392.2	7.470
392.4	7.351
392.6	7.522
392.8	7.781
393.0	7.929
393.2	7.983
393.4	8.183
393.6	8.087
393.8	8.270
394.0	8.182
394.2	8.660
394.4	8.611
394.6	8.692
394.8	8.616
395.0	8.515
395.2	8.483
395.4	9.458
395.6	9.465
395.8	9.784
396.0	9.923
396.2	9.931
396.4	10.10
396.6	10.56
396.8	10.77
397.0	11.46
397.2	11.71
397.4	12.00
397.6	12.00
397.8	12.21
398.0	12.35
398.2	13.01
398.4	13.37
398.6	13.47
398.8	13.89
399.0	13.65
399.2	13.93
399.4	14.20
399.6	15.03
399.8	16.03
400.0	16.78
400.2	16.69
400.4	17.06
400.6	17.04
400.8	18.30
401.0	19.58
401.2	19.99
401.4	21.03
401.6	21.52
401.8	22.57
402.0	23.86
402.2	24.35
402.4	24.72
402.6	25.10
402.8	25.08
403.0	25.91
403.2	27.46
403.4	28.75
403.6	30.32
403.8	30.52
404.0	31.43
404.2	32.32
404.4	33.21
404.6	34.41
404.8	35.68
405.0	36.52
405.2	38.72
405.4	40.05
405.6	40.79
405.8	42.65
406.0	44.66
406.2	47.17
406.4	49.94
406.6	52.17
406.8	54.03
407.0	56.29
407.2	58.34
407.4	59.91
407.6	61.86
407.8	64.40
408.0	65.76
408.2	68.77
408.4	72.47
408.6	76.05
408.8	78.84
409.0	82.04
409.2	83.62
409.4	86.19
409.6	89.00
409.8	93.40
410.0	96.07
410.2	100.8
410.4	105.2
410.6	108.0
410.8	113.8
411.0	117.7
411.2	121.1
411.4	125.3
411.6	129.9
411.8	132.6
412.0	138.4
412.2	142.1
412.4	147.0
412.6	151.1
412.8	156.1
413.0	161.6
413.2	166.9
413.4	173.5
413.6	178.4
413.8	182.1
414.0	188.1
414.2	196.5
414.4	202.2
414.6	209.4
414.8	216.6
415.0	223.7
415.2	232.9
415.4	242.3
415.6	249.1
415.8	254.7
416.0	260.2
416.2	269.1
416.4	278.5
416.6	287.9
416.8	296.0
417.0	300.7
417.2	305.2
417.4	314.0
417.6	323.0
417.8	333.3
418.0	342.5
418.2	349.6
418.4	358.8
418.6	368.2
418.8	376.5
419.0	385.9
419.2	395.0
419.4	402.6
419.6	413.6
419.8	425.0
420.0	434.3
420.2	444.7
420.4	453.9
420.6	465.1
420.8	475.1
421.0	488.3
421.2	499.4
421.4	510.7
421.6	522.4
421.8	537.1
422.0	550.5
422.2	562.4
422.4	569.8
422.6	575.9
422.8	586.2
423.0	596.0
423.2	607.1
423.4	618.3
423.6	629.6
423.8	643.1
424.0	656.2
424.2	669.9
424.4	680.6
424.6	694.5
424.8	705.6
425.0	716.7
425.2	727.6
425.4	742.4
425.6	752.4
425.8	763.9
426.0	772.3
426.2	782.6
426.4	796.4
426.6	813.8
426.8	824.9
427.0	833.1
427.2	841.9
427.4	853.1
427.6	865.4
427.8	880.9
428.0	891.2
428.2	899.7
428.4	910.7
428.6	917.8
428.8	924.0
429.0	936.2
429.2	951.3
429.4	969.2
429.6	986.8
429.8	998.1
430.0	1009
430.2	1023
430.4	1036
430.6	1046
430.8	1053
431.0	1064
431.2	1077
431.4	1089
431.6	1097
431.8	1106
432.0	1113
432.2	1125
432.4	1135
432.6	1149
432.8	1156
433.0	1167
433.2	1177
433.4	1188
433.6	1200
433.8	1215
434.0	1220
434.2	1229
434.4	1240
434.6	1253
434.8	1265
435.0	1273
435.2	1283
435.4	1294
435.6	1306
435.8	1316
436.0	1328
436.2	1336
436.4	1345
436.6	1353
436.8	1358
437.0	1366
437.2	1380
437.4	1389
437.6	1395
437.8	1405
438.0	1406
438.2	1411
438.4	1416
438.6	1424
438.8	1435
439.0	1443
439.2	1454
439.4	1463
439.6	1469
439.8	1476
440.0	1479
440.2	1479
440.4	1491
440.6	1506
440.8	1516
441.0	1526
441.2	1535
441.4	1537
441.6	1541
441.8	1547
442.0	1550
442.2	1558
442.4	1569
442.6	1570
442.8	1572
443.0	1581
443.2	1588
443.4	1599
443.6	1607
443.8	1608
444.0	1605
444.2	1616
444.4	1621
444.6	1629
444.8	1638
445.0	1642
445.2	1641
445.4	1650
445.6	1660
445.8	1664
446.0	1668
446.2	1667
446.4	1668
446.6	1677
446.8	1695
447.0	1698
447.2	1699
447.4	1694
447.6	1695
447.8	1704
448.0	1717
448.2	1724
448.4	1733
448.6	1735
448.8	1741
449.0	1747
449.2	1755
449.4	1756
449.6	1760
449.8	1764
450.0	1772
450.2	1778
450.4	1782
450.6	1778
450.8	1780
451.0	1787
451.2	1799
451.4	1810
451.6	1813
451.8	1811
452.0	1812
452.2	1816
452.4	1819
452.6	1831
452.8	1839
453.0	1840
453.2	1842
453.4	1848
453.6	1853
453.8	1864
454.0	1874
454.2	1876
454.4	1878
454.6	1886
454.8	1898
455.0	1904
455.2	1910
455.4	1909
455.6	1910
455.8	1915
456.0	1920
456.2	1923
456.4	1927
456.6	1926
456.8	1932
457.0	1939
457.2	1943
457.4	1953
457.6	1957
457.8	1958
458.0	1958
458.2	1966
458.4	1969
458.6	1978
458.8	1984
459.0	1988
459.2	1990
459.4	2002
459.6	2013
459.8	2019
460.0	2022
460.2	2015
460.4	2017
460.6	2023
460.8	2033
461.0	2039
461.2	2043
461.4	2045
461.6	2058
461.8	2067
462.0	2069
462.2	2071
462.4	2069
462.6	2069
462.8	2070
463.0	2070
463.2	2076
463.4	2081
463.6	2094
463.8	2098
464.0	2107
464.2	2112
464.4	2115
464.6	2115
464.8	2121
465.0	2121
465.2	2124
465.4	2128
465.6	2125
465.8	2131
466.0	2140
466.2	2147
466.4	2153
466.6	2158
466.8	2158
467.0	2158
467.2	2161
467.4	2171
467.6	2181
467.8	2184
468.0	2190
468.2	2188
468.4	2186
468.6	2186
468.8	2180
469.0	2180
469.2	2186
469.4	2194
469.6	2204
469.8	2216
470.0	2223
470.2	2227
470.4	2222
470.6	2217
470.8	2220
471.0	2226
471.2	2238
471.4	2241
471.6	2237
471.8	2238
472.0	2238
472.2	2238
472.4	2245
472.6	2245
472.8	2250
473.0	2259
473.2	2263
473.4	2266
473.6	2266
473.8	2261
474.0	2261
474.2	2263
474.4	2262
474.6	2262
474.8	2262
475.0	2264
475.2	2261
475.4	2261
475.6	2266
475.8	2277
476.0	2284
476.2	2290
476.4	2286
476.6	2281
476.8	2284
477.0	2288
477.2	2282
477.4	2286
477.6	2288
477.8	2296
478.0	2297
478.2	2298
478.4	2300
478.6	2309
478.8	2307
479.0	2309
479.2	2302
479.4	2302
479.6	2309
479.8	2314
480.0	2315
480.2	2315
480.4	2314
480.6	2314
480.8	2316
481.0	2318
481.2	2320
481.4	2316
481.6	2322
481.8	2325
482.0	2331
482.2	2335
482.4	2330
482.6	2325
482.8	2329
483.0	2325
483.2	2329
483.4	2340
483.6	2336
483.8	2332
484.0	2328
484.2	2321
484.4	2323
484.6	2333
484.8	2342
485.0	2342
485.2	2345
485.4	2340
485.6	2331
485.8	2336
486.0	2342
486.2	2345
486.4	2347
486.6	2352
486.8	2349
487.0	2349
487.2	2342
487.4	2344
487.6	2339
487.8	2346
488.0	2344
488.2	2346
488.4	2351
488.6	2360
488.8	2362
489.0	2359
489.2	2350
489.4	2347
489.6	2342
489.8	2342
490.0	2344
490.2	2348
490.4	2345
490.6	2338
490.8	2341
491.0	2330
491.2	2327
491.4	2329
491.6	2329
491.8	2334
492.0	2347
492.2	2340
492.4	2330
492.6	2317
492.8	2316
493.0	2323
493.2	2325
493.4	2328
493.6	2324
493.8	2316
494.0	2319
494.2	2321
494.4	2319
494.6	2319
494.8	2313
495.0	2303
495.2	2292
495.4	2284
495.6	2283
495.8	2282
496.0	2281
496.2	2286
496.4	2284
496.6	2278
496.8	2274
497.0	2276
497.2	2276
497.4	2279
497.6	2274
497.8	2265
498.0	2259
498.2	2261
498.4	2258
498.6	2254
498.8	2247
499.0	2243
499.2	2239
499.4	2245
499.6	2239
499.8	2237
500.0	2234
500.2	2228
500.4	2224
500.6	2219
500.8	2207
501.0	2211
501.2	2206
501.4	2202
501.6	2199
501.8	2193
502.0	2191
502.2	2200
502.4	2193
502.6	2189
502.8	2178
503.0	2175
503.2	2166
503.4	2163
503.6	2161
503.8	2160
504.0	2158
504.2	2158
504.4	2151
504.6	2145
504.8	2138
505.0	2136
505.2	2138
505.4	2130
505.6	2123
505.8	2109
506.0	2098
506.2	2099
506.4	2103
506.6	2103
506.8	2100
507.0	2089
507.2	2077
507.4	2073
507.6	2072
507.8	2072
508.0	2065
508.2	2061
508.4	2054
508.6	2042
508.8	2033
509.0	2026
509.2	2018
509.4	2016
509.6	2018
509.8	2006
510.0	2007
510.2	2002
510.4	2000
510.6	1997
510.8	1989
511.0	1982
511.2	1988
511.4	1980
511.6	1974
511.8	1970
512.0	1966
512.2	1958
512.4	1954
512.6	1948
512.8	1945
513.0	1942
513.2	1943
513.4	1933
513.6	1929
513.8	1924
514.0	1916
514.2	1909
514.4	1902
514.6	1895
514.8	1899
515.0	1897
515.2	1890
515.4	1884
515.6	1871
515.8	1861
516.0	1856
516.2	1854
516.4	1848
516.6	1841
516.8	1838
517.0	1835
517.2	1831
517.4	1836
517.6	1833
517.8	1829
518.0	1825
518.2	1818
518.4	1810
518.6	1806
518.8	1797
519.0	1790
519.2	1781
519.4	1776
519.6	1774
519.8	1779
520.0	1786
520.2	1788
520.4	1772
520.6	1755
520.8	1751
521.0	1751
521.2	1747
521.4	1742
521.6	1730
521.8	1720
522.0	1722
522.2	1717
522.4	1707
522.6	1703
522.8	1700
523.0	1694
523.2	1691
523.4	1679
523.6	1674
523.8	1674
524.0	1671
524.2	1666
524.4	1667
524.6	1665
524.8	1660
525.0	1653
525.2	1641
525.4	1631
525.6	1629
525.8	1626
526.0	1629
526.2	1624
526.4	1614
526.6	1600
526.8	1590
527.0	1582
527.2	1580
527.4	1581
527.6	1573
527.8	1567
528.0	1567
528.2	1572
528.4	1568
528.6	1568
528.8	1559
529.0	1552
529.2	1550
529.4	1550
529.6	1548
529.8	1543
530.0	1533
530.2	1520
530.4	1514
530.6	1511
530.8	1515
531.0	1519
531.2	1513
531.4	1508
531.6	1496
531.8	1488
532.0	1486
532.2	1483
532.4	1477
532.6	1471
532.8	1463
533.0	1462
533.2	1462
533.4	1450
533.6	1444
533.8	1440
534.0	1441
534.2	1440
534.4	1436
534.6	1428
534.8	1422
535.0	1419
535.2	1416
535.4	1413
535.6	1411
535.8	1408
536.0	1402
536.2	1393
536.4	1384
536.6	1380
536.8	1375
537.0	1372
537.2	1373
537.4	1369
537.6	1367
537.8	1361
538.0	1349
538.2	1343
538.4	1340
538.6	1334
538.8	1335
539.0	1331
539.2	1325
539.4	1320
539.6	1315
539.8	1309
540.0	1306
540.2	1305
540.4	1301
540.6	1292
540.8	1283
541.0	1280
541.2	1277
541.4	1276
541.6	1275
541.8	1269
542.0	1263
542.2	1262
542.4	1258
542.6	1252
542.8	1249
543.0	1241
543.2	1235
543.4	1230
543.6	1224
543.8	1213
544.0	1208
544.2	1207
544.4	1205
544.6	1207
544.8	1203
545.0	1190
545.2	1187
545.4	1185
545.6	1182
545.8	1184
546.0	1180
546.2	1173
546.4	1168
546.6	1167
546.8	1163
547.0	1162
547.2	1161
547.4	1158
547.6	1150
547.8	1141
548.0	1131
548.2	1123
548.4	1122
548.6	1128
548.8	1129
549.0	1122
549.2	1116
549.4	1109
549.6	1103
549.8	1098
550.0	1093
550.2	1084
550.4	1082
550.6	1083
550.8	1079
551.0	1078
551.2	1073
551.4	1070
551.6	1065
551.8	1059
552.0	1054
552.2	1046
552.4	1042
552.6	1039
552.8	1034
553.0	1027
553.2	1024
553.4	1022
553.6	1026
553.8	1025
554.0	1019
554.2	1012
554.4	1006
554.6	1006
554.8	1008
555.0	1004
555.2	995.7
555.4	991.5
555.6	986.9
555.8	980.5
556.0	975.9
556.2	972.6
556.4	964.5
556.6	961.3
556.8	957.6
557.0	954.6
557.2	956.5
557.4	956.9
557.6	949.8
557.8	946.8
558.0	942.3
558.2	937.8
558.4	937.1
558.6	932.5
558.8	927.1
559.0	920.2
559.2	914.4
559.4	908.8
559.6	908.0
559.8	903.5
560.0	900.2
560.2	896.3
560.4	889.4
560.6	888.2
560.8	888.9
561.0	888.4
561.2	890.4
561.4	893.1
561.6	886.2
561.8	881.7
562.0	873.8
562.2	867.1
562.4	861.0
562.6	858.3
562.8	855.2
563.0	851.3
563.2	846.3
563.4	841.0
563.6	838.7
563.8	837.0
564.0	834.4
564.2	829.2
564.4	824.2
564.6	820.4
564.8	820.6
565.0	822.0
565.2	820.4
565.4	817.4
565.6	809.6
565.8	800.3
566.0	794.9
566.2	795.7
566.4	795.1
566.6	798.2
566.8	797.5
567.0	793.8
567.2	790.8
567.4	787.7
567.6	779.0
567.8	774.0
568.0	769.4
568.2	767.5
568.4	766.3
568.6	763.2
568.8	755.6
569.0	748.1
569.2	745.6
569.4	745.8
569.6	745.7
569.8	740.8
570.0	736.4
570.2	732.0
570.4	732.3
570.6	730.2
570.8	728.4
571.0	724.0
571.2	722.4
571.4	718.1
571.6	717.2
571.8	716.2
572.0	714.6
572.2	709.4
572.4	705.4
572.6	700.0
572.8	697.7
573.0	696.2
573.2	695.4
573.4	688.8
573.6	686.3
573.8	680.9
574.0	677.2
574.2	677.0
574.4	679.2
574.6	674.7
574.8	671.9
575.0	664.4
575.2	660.0
575.4	659.1
575.6	661.5
575.8	659.6
576.0	658.2
576.2	655.9
576.4	653.8
576.6	650.7
576.8	649.2
577.0	642.0
577.2	636.4
577.4	631.2
577.6	630.0
577.8	627.4
578.0	625.8
578.2	622.0
578.4	617.9
578.6	615.5
578.8	615.2
579.0	611.7
579.2	611.3
579.4	609.7
579.6	602.2
579.8	597.2
580.0	595.5
580.2	595.1
580.4	597.8
580.6	597.5
580.8	593.5
581.0	586.3
581.2	580.8
581.4	574.7
581.6	571.2
581.8	570.1
582.0	570.7
582.2	569.3
582.4	568.1
582.6	567.5
582.8	565.5
583.0	564.6
583.2	561.2
583.4	559.6
583.6	556.2
583.8	554.4
584.0	551.2
584.2	548.3
584.4	544.0
584.6	541.6
584.8	536.2
585.0	534.9
585.2	535.5
585.4	533.8
585.6	531.3
585.8	529.7
586.0	526.0
586.2	524.8
586.4	523.8
586.6	518.7
586.8	514.2
587.0	511.7
587.2	510.9
587.4	509.0
587.6	509.4
587.8	508.2
588.0	507.7
588.2	501.3
588.4	500.0
588.6	495.3
588.8	494.3
589.0	493.3
589.2	496.4
589.4	490.9
589.6	488.7
589.8	484.1
590.0	481.3
590.2	478.2
590.4	477.6
590.6	472.0
590.8	470.3
591.0	470.3
591.2	470.1
591.4	467.8
591.6	464.6
591.8	461.1
592.0	461.2
592.2	462.8
592.4	462.3
592.6	458.2
592.8	452.8
593.0	446.2
593.2	442.0
593.4	441.0
593.6	442.5
593.8	439.4
594.0	436.6
594.2	432.9
594.4	429.7
594.6	429.5
594.8	429.8
595.0	428.3
595.2	427.8
595.4	426.0
595.6	423.2
595.8	420.8
596.0	418.4
596.2	415.3
596.4	412.4
596.6	407.8
596.8	410.9
597.0	410.3
597.2	410.2
597.4	405.9
597.6	402.4
597.8	400.2
598.0	403.4
598.2	398.7
598.4	394.5
598.6	390.0
598.8	387.8
599.0	388.1
599.2	388.0
599.4	386.1
599.6	383.9
599.8	382.7
600.0	381.3
600.2	378.5
600.4	377.0
600.6	376.6
600.8	376.7
601.0	377.6
601.2	378.2
601.4	375.0
601.6	370.6
601.8	365.2
602.0	361.5
602.2	361.0
602.4	361.9
602.6	362.0
602.8	360.8
603.0	358.6
603.2	355.3
603.4	353.9
603.6	354.3
603.8	352.1
604.0	349.3
604.2	346.0
604.4	342.5
604.6	338.9
604.8	340.6
605.0	340.2
605.2	341.4
605.4	341.9
605.6	340.9
605.8	335.4
606.0	331.5
606.2	329.8
606.4	328.1
606.6	328.3
606.8	328.3
607.0	327.9
607.2	325.1
607.4	325.2
607.6	321.8
607.8	321.7
608.0	321.7
608.2	320.0
608.4	315.8
608.6	311.3
608.8	306.4
609.0	304.0
609.2	302.0
609.4	300.7
609.6	300.4
609.8	302.5
610.0	303.4
610.2	302.9
610.4	298.3
610.6	294.5
610.8	291.2
611.0	291.0
611.2	290.9
611.4	292.8
611.6	291.0
611.8	289.6
612.0	287.9
612.2	284.2
612.4	281.3
612.6	280.8
612.8	278.8
613.0	278.4
613.2	278.7
613.4	274.5
613.6	270.9
613.8	269.1
614.0	268.4
614.2	268.8
614.4	268.9
614.6	267.1
614.8	265.0
615.0	262.2
615.2	260.7
615.4	257.7
615.6	256.2
615.8	257.0
616.0	257.3
616.2	257.7
616.4	257.4
616.6	255.6
616.8	252.8
617.0	250.8
617.2	247.3
617.4	245.7
617.6	244.4
617.8	244.0
618.0	242.6
618.2	242.3
618.4	240.8
618.6	240.4
618.8	240.5
619.0	240.6
619.2	239.6
619.4	236.8
619.6	234.6
619.8	233.1
620.0	231.7
620.2	230.4
620.4	230.6
620.6	230.6
620.8	228.6
621.0	227.8
621.2	225.1
621.4	223.3
621.6	221.9
621.8	223.1
622.0	221.9
622.2	221.5
622.4	219.5
622.6	218.5
622.8	215.1
623.0	213.9
623.2	213.2
623.4	213.5
623.6	212.6
623.8	211.8
624.0	209.8
624.2	207.7
624.4	206.5
624.6	204.7
624.8	201.6
625.0	201.3
625.2	201.8
625.4	202.9
625.6	201.8
625.8	198.6
626.0	195.1
626.2	192.8
626.4	193.5
626.6	194.6
626.8	193.4
627.0	192.2
627.2	191.0
627.4	187.8
627.6	187.3
627.8	186.9
628.0	186.4
628.2	186.1
628.4	184.1
628.6	181.2
628.8	179.6
629.0	179.8
629.2	180.8
629.4	181.5
629.6	180.9
629.8	178.4
630.0	175.7
630.2	172.8
630.4	171.5
630.6	172.5
630.8	173.3
631.0	173.9
631.2	174.0
631.4	172.4
631.6	171.0
631.8	170.7
632.0	168.4
632.2	167.2
632.4	166.3
632.6	166.3
632.8	164.4
633.0	163.5
633.2	163.3
633.4	161.3
633.6	158.4
633.8	159.6
634.0	157.7
634.2	157.2
634.4	157.0
634.6	154.9
634.8	152.3
635.0	153.8
635.2	152.8
635.4	151.5
635.6	149.9
635.8	148.5
636.0	147.3
636.2	148.0
636.4	146.6
636.6	144.8
636.8	144.3
637.0	143.6
637.2	143.5
637.4	145.4
637.6	144.4
637.8	141.4
638.0	139.1
638.2	137.0
638.4	136.9
638.6	138.4
638.8	139.8
639.0	140.2
639.2	139.4
639.4	137.1
639.6	135.0
639.8	132.6
640.0	131.3
640.2	131.9
640.4	133.3
640.6	131.8
640.8	129.7
641.0	127.6
641.2	126.5
641.4	126.8
641.6	127.5
641.8	125.6
642.0	123.5
642.2	122.2
642.4	122.4
642.6	123.0
642.8	123.3
643.0	122.5
643.2	120.6
643.4	118.6
643.6	117.4
643.8	117.4
644.0	117.1
644.2	117.7
644.4	118.2
644.6	118.8
644.8	118.6
645.0	116.6
645.2	113.7
645.4	111.6
645.6	110.8
645.8	110.1
646.0	109.5
646.2	109.3
646.4	109.6
646.6	109.3
646.8	110.5
647.0	110.4
647.2	110.5
647.4	109.4
647.6	107.9
647.8	107.0
648.0	107.4
648.2	107.2
648.4	107.0
648.6	104.6
648.8	103.6
649.0	103.2
649.2	102.7
649.4	102.6
649.6	102.8
649.8	100.7
650.0	98.18
650.2	96.09
650.4	94.66
650.6	94.01
650.8	95.69
651.0	95.18
651.2	95.13
651.4	94.86
651.6	95.50
651.8	94.63
652.0	94.95
652.2	93.22
652.4	93.40
652.6	92.36
652.8	92.43
653.0	91.38
653.2	91.29
653.4	91.28
653.6	90.26
653.8	88.53
654.0	87.48
654.2	86.29
654.4	86.98
654.6	87.59
654.8	87.03
655.0	86.87
655.2	86.76
655.4	85.06
655.6	85.00
655.8	84.20
656.0	84.08
656.2	84.09
656.4	83.40
656.6	81.18
656.8	81.03
657.0	80.89
657.2	81.24
657.4	81.48
657.6	80.86
657.8	79.31
658.0	79.39
658.2	79.60
658.4	78.69
658.6	77.83
658.8	76.46
659.0	75.04
659.2	74.61
659.4	74.51
659.6	74.21
659.8	73.77
660.0	73.58
660.2	73.46
660.4	73.67
660.6	73.22
660.8	72.80
661.0	72.12
661.2	72.10
661.4	71.40
661.6	71.63
661.8	70.98
662.0	70.50
662.2	69.42
662.4	68.59
662.6	68.24
662.8	68.36
663.0	68.14
663.2	68.22
663.4	66.55
663.6	64.48
663.8	64.92
664.0	64.47
664.2	64.74
664.4	64.31
664.6	62.93
664.8	62.61
665.0	64.64
665.2	64.93
665.4	65.66
665.6	64.68
665.8	63.32
666.0	61.35
666.2	60.71
666.4	59.64
666.6	59.32
666.8	59.63
667.0	61.12
667.2	60.83
667.4	60.87
667.6	59.84
667.8	58.91
668.0	57.19
668.2	56.25
668.4	54.90
668.6	55.95
668.8	56.20
669.0	56.78
669.2	56.05
669.4	55.49
669.6	54.43
669.8	55.00
670.0	54.75
670.2	53.90
670.4	54.29
670.6	54.60
670.8	54.71
671.0	53.57
671.2	53.54
671.4	52.61
671.6	52.90
671.8	52.42
672.0	51.64
672.2	50.86
672.4	49.86
672.6	49.93
672.8	49.95
673.0	49.87
673.2	50.04
673.4	49.52
673.6	48.43
673.8	48.91
674.0	49.16
674.2	48.76
674.4	48.52
674.6	47.46
674.8	46.74
675.0	46.27
675.2	46.39
675.4	47.28
675.6	47.63
675.8	47.62
676.0	47.82
676.2	47.35
676.4	46.71
676.6	46.67
676.8	44.81
677.0	43.66
677.2	43.30
677.4	42.60
677.6	42.34
677.8	42.56
678.0	41.41
678.2	41.16
678.4	41.21
678.6	40.51
678.8	41.20
679.0	42.21
679.2	41.25
679.4	40.90
679.6	40.56
679.8	40.63
680.0	41.36

