Sample:	'20211010A(EM)
File name:	B-CDs 10 1.FDS
Run date:	'15:38:42, 06/08/2023
Operator:	Administrator
Comment:	'

Instrument
Model:	F-4700 FL Spectrophotometer
Serial number:	2019-001
ROM Version:	5J24010 00

Instrument parameters
Measurement type:	Wavelength scan
Scan mode:	Emission
Data mode:	Fluorescence
EX WL:	350.0 nm
EM  Start WL:	370.0 nm
EM  End WL:	680.0 nm
Scan speed:	1200 nm/min
Delay:	0.0 s
EX Slit:	10.0 nm
EM Slit:	10.0 nm
PMT Voltage:	460 V
Response:	0.002 s
Corrected spectra:	Off
Shutter control:	On

Processing performed
Savitsky-Golay smoothed
Smoothing order:	3
Number of points:	7
Number of times:	1

Peak integration
Integration method:	Rectangular
Sensitivity:	1
Threshold:	1.000

Peaks
No.	Start(nm)	Apex(nm)	End(nm)	Height(Data)	Valley(nm)	Valley(Data)
1	370.0	462.0	680.0	7457	680.0	31.81

Data points
nm	Data
370.0	8.348
370.2	8.329
370.4	8.362
370.6	8.380
370.8	8.258
371.0	8.022
371.2	7.792
371.4	8.083
371.6	8.342
371.8	8.672
372.0	8.891
372.2	9.065
372.4	8.790
372.6	8.872
372.8	8.791
373.0	8.520
373.2	8.669
373.4	8.997
373.6	8.935
373.8	8.812
374.0	8.541
374.2	8.057
374.4	8.281
374.6	8.752
374.8	8.960
375.0	8.728
375.2	8.773
375.4	8.828
375.6	9.091
375.8	9.433
376.0	9.275
376.2	9.216
376.4	9.224
376.6	9.117
376.8	9.021
377.0	9.217
377.2	9.301
377.4	9.957
377.6	10.23
377.8	10.27
378.0	10.02
378.2	9.993
378.4	9.782
378.6	10.05
378.8	10.40
379.0	10.68
379.2	10.57
379.4	10.62
379.6	10.34
379.8	10.20
380.0	10.39
380.2	10.73
380.4	11.04
380.6	11.41
380.8	11.53
381.0	11.58
381.2	11.67
381.4	11.82
381.6	11.81
381.8	12.02
382.0	12.45
382.2	12.65
382.4	12.66
382.6	12.47
382.8	12.43
383.0	12.72
383.2	13.01
383.4	13.08
383.6	13.23
383.8	13.38
384.0	13.93
384.2	14.20
384.4	14.28
384.6	14.46
384.8	14.89
385.0	15.27
385.2	15.34
385.4	15.39
385.6	15.75
385.8	15.96
386.0	16.75
386.2	17.58
386.4	18.04
386.6	18.43
386.8	18.38
387.0	17.97
387.2	18.42
387.4	19.04
387.6	19.80
387.8	20.59
388.0	21.15
388.2	21.24
388.4	21.72
388.6	22.04
388.8	22.52
389.0	23.23
389.2	23.95
389.4	24.81
389.6	25.76
389.8	26.55
390.0	27.38
390.2	27.96
390.4	28.60
390.6	29.38
390.8	30.24
391.0	31.13
391.2	32.47
391.4	33.89
391.6	35.36
391.8	36.11
392.0	36.99
392.2	38.51
392.4	39.96
392.6	41.27
392.8	42.35
393.0	43.37
393.2	44.37
393.4	46.45
393.6	48.37
393.8	49.54
394.0	51.15
394.2	53.04
394.4	54.72
394.6	56.81
394.8	59.47
395.0	61.16
395.2	63.64
395.4	66.11
395.6	69.01
395.8	71.47
396.0	74.12
396.2	75.90
396.4	77.99
396.6	80.84
396.8	84.80
397.0	88.34
397.2	91.88
397.4	94.80
397.6	97.29
397.8	100.8
398.0	105.1
398.2	109.4
398.4	114.2
398.6	118.6
398.8	123.6
399.0	129.0
399.2	134.4
399.4	139.8
399.6	144.4
399.8	148.7
400.0	155.3
400.2	163.3
400.4	170.4
400.6	177.7
400.8	184.4
401.0	191.7
401.2	199.1
401.4	208.1
401.6	215.0
401.8	221.8
402.0	229.8
402.2	238.2
402.4	245.1
402.6	254.5
402.8	262.5
403.0	271.1
403.2	283.7
403.4	294.4
403.6	306.0
403.8	318.7
404.0	329.0
404.2	342.7
404.4	356.5
404.6	366.6
404.8	377.8
405.0	389.3
405.2	403.1
405.4	421.3
405.6	438.4
405.8	452.7
406.0	465.0
406.2	478.5
406.4	492.7
406.6	509.8
406.8	530.3
407.0	548.9
407.2	567.2
407.4	584.4
407.6	600.3
407.8	617.6
408.0	635.6
408.2	654.9
408.4	677.9
408.6	700.6
408.8	723.0
409.0	746.3
409.2	767.0
409.4	789.5
409.6	811.1
409.8	835.2
410.0	859.9
410.2	888.8
410.4	913.7
410.6	937.9
410.8	959.3
411.0	988.0
411.2	1017
411.4	1045
411.6	1073
411.8	1102
412.0	1130
412.2	1161
412.4	1188
412.6	1214
412.8	1245
413.0	1278
413.2	1307
413.4	1339
413.6	1370
413.8	1402
414.0	1438
414.2	1472
414.4	1502
414.6	1536
414.8	1572
415.0	1606
415.2	1643
415.4	1679
415.6	1717
415.8	1758
416.0	1800
416.2	1837
416.4	1872
416.6	1910
416.8	1945
417.0	1984
417.2	2020
417.4	2054
417.6	2093
417.8	2135
418.0	2172
418.2	2215
418.4	2256
418.6	2298
418.8	2338
419.0	2376
419.2	2413
419.4	2456
419.6	2507
419.8	2556
420.0	2598
420.2	2643
420.4	2685
420.6	2722
420.8	2763
421.0	2806
421.2	2848
421.4	2896
421.6	2935
421.8	2975
422.0	3018
422.2	3065
422.4	3110
422.6	3153
422.8	3189
423.0	3228
423.2	3273
423.4	3319
423.6	3367
423.8	3414
424.0	3456
424.2	3495
424.4	3539
424.6	3581
424.8	3630
425.0	3674
425.2	3718
425.4	3760
425.6	3807
425.8	3850
426.0	3896
426.2	3928
426.4	3970
426.6	4006
426.8	4046
427.0	4090
427.2	4132
427.4	4170
427.6	4208
427.8	4251
428.0	4291
428.2	4327
428.4	4369
428.6	4410
428.8	4451
429.0	4502
429.2	4543
429.4	4576
429.6	4612
429.8	4639
430.0	4675
430.2	4721
430.4	4766
430.6	4814
430.8	4849
431.0	4881
431.2	4909
431.4	4951
431.6	4989
431.8	5031
432.0	5063
432.2	5098
432.4	5131
432.6	5164
432.8	5198
433.0	5228
433.2	5260
433.4	5293
433.6	5331
433.8	5365
434.0	5403
434.2	5433
434.4	5472
434.6	5500
434.8	5530
435.0	5559
435.2	5590
435.4	5623
435.6	5662
435.8	5688
436.0	5717
436.2	5741
436.4	5769
436.6	5795
436.8	5831
437.0	5861
437.2	5891
437.4	5923
437.6	5947
437.8	5966
438.0	5992
438.2	6022
438.4	6059
438.6	6083
438.8	6105
439.0	6124
439.2	6155
439.4	6186
439.6	6213
439.8	6222
440.0	6238
440.2	6263
440.4	6298
440.6	6315
440.8	6327
441.0	6340
441.2	6352
441.4	6375
441.6	6401
441.8	6417
442.0	6441
442.2	6470
442.4	6499
442.6	6522
442.8	6538
443.0	6555
443.2	6569
443.4	6585
443.6	6607
443.8	6625
444.0	6644
444.2	6672
444.4	6692
444.6	6703
444.8	6703
445.0	6715
445.2	6729
445.4	6753
445.6	6771
445.8	6790
446.0	6795
446.2	6814
446.4	6828
446.6	6842
446.8	6853
447.0	6860
447.2	6865
447.4	6878
447.6	6891
447.8	6911
448.0	6930
448.2	6942
448.4	6961
448.6	6977
448.8	6997
449.0	7018
449.2	7022
449.4	7027
449.6	7032
449.8	7051
450.0	7073
450.2	7087
450.4	7094
450.6	7099
450.8	7100
451.0	7109
451.2	7116
451.4	7126
451.6	7139
451.8	7156
452.0	7168
452.2	7180
452.4	7196
452.6	7214
452.8	7225
453.0	7237
453.2	7248
453.4	7252
453.6	7262
453.8	7272
454.0	7269
454.2	7263
454.4	7259
454.6	7264
454.8	7284
455.0	7297
455.2	7308
455.4	7314
455.6	7317
455.8	7333
456.0	7336
456.2	7332
456.4	7337
456.6	7343
456.8	7348
457.0	7363
457.2	7368
457.4	7370
457.6	7383
457.8	7392
458.0	7389
458.2	7397
458.4	7400
458.6	7401
458.8	7410
459.0	7417
459.2	7414
459.4	7412
459.6	7402
459.8	7399
460.0	7403
460.2	7424
460.4	7434
460.6	7440
460.8	7440
461.0	7437
461.2	7432
461.4	7445
461.6	7447
461.8	7448
462.0	7457
462.2	7456
462.4	7445
462.6	7444
462.8	7443
463.0	7433
463.2	7436
463.4	7433
463.6	7429
463.8	7430
464.0	7434
464.2	7429
464.4	7432
464.6	7435
464.8	7432
465.0	7422
465.2	7424
465.4	7414
465.6	7408
465.8	7413
466.0	7408
466.2	7398
466.4	7398
466.6	7384
466.8	7380
467.0	7382
467.2	7377
467.4	7371
467.6	7365
467.8	7356
468.0	7347
468.2	7335
468.4	7320
468.6	7314
468.8	7316
469.0	7313
469.2	7313
469.4	7320
469.6	7311
469.8	7302
470.0	7290
470.2	7275
470.4	7263
470.6	7258
470.8	7242
471.0	7234
471.2	7238
471.4	7243
471.6	7237
471.8	7225
472.0	7207
472.2	7182
472.4	7173
472.6	7167
472.8	7161
473.0	7165
473.2	7160
473.4	7140
473.6	7124
473.8	7121
474.0	7115
474.2	7107
474.4	7099
474.6	7085
474.8	7072
475.0	7067
475.2	7059
475.4	7032
475.6	7018
475.8	6998
476.0	6996
476.2	6995
476.4	6985
476.6	6963
476.8	6958
477.0	6932
477.2	6926
477.4	6919
477.6	6899
477.8	6885
478.0	6877
478.2	6858
478.4	6848
478.6	6839
478.8	6832
479.0	6823
479.2	6818
479.4	6813
479.6	6792
479.8	6776
480.0	6760
480.2	6740
480.4	6730
480.6	6718
480.8	6695
481.0	6682
481.2	6671
481.4	6660
481.6	6651
481.8	6642
482.0	6628
482.2	6613
482.4	6592
482.6	6582
482.8	6573
483.0	6573
483.2	6564
483.4	6545
483.6	6520
483.8	6499
484.0	6483
484.2	6472
484.4	6458
484.6	6447
484.8	6432
485.0	6414
485.2	6401
485.4	6381
485.6	6367
485.8	6363
486.0	6345
486.2	6336
486.4	6316
486.6	6295
486.8	6284
487.0	6278
487.2	6258
487.4	6257
487.6	6229
487.8	6213
488.0	6202
488.2	6186
488.4	6164
488.6	6155
488.8	6137
489.0	6125
489.2	6119
489.4	6101
489.6	6076
489.8	6050
490.0	6032
490.2	6016
490.4	6001
490.6	5985
490.8	5971
491.0	5950
491.2	5932
491.4	5915
491.6	5895
491.8	5877
492.0	5870
492.2	5852
492.4	5834
492.6	5816
492.8	5808
493.0	5789
493.2	5777
493.4	5764
493.6	5743
493.8	5709
494.0	5689
494.2	5667
494.4	5651
494.6	5639
494.8	5618
495.0	5593
495.2	5579
495.4	5560
495.6	5540
495.8	5512
496.0	5487
496.2	5474
496.4	5455
496.6	5434
496.8	5421
497.0	5401
497.2	5377
497.4	5362
497.6	5334
497.8	5320
498.0	5309
498.2	5296
498.4	5279
498.6	5263
498.8	5232
499.0	5218
499.2	5198
499.4	5178
499.6	5161
499.8	5139
500.0	5109
500.2	5088
500.4	5075
500.6	5048
500.8	5032
501.0	5012
501.2	4985
501.4	4965
501.6	4949
501.8	4927
502.0	4914
502.2	4895
502.4	4877
502.6	4866
502.8	4847
503.0	4833
503.2	4814
503.4	4796
503.6	4773
503.8	4747
504.0	4721
504.2	4703
504.4	4683
504.6	4664
504.8	4638
505.0	4609
505.2	4587
505.4	4569
505.6	4545
505.8	4524
506.0	4513
506.2	4497
506.4	4489
506.6	4472
506.8	4448
507.0	4436
507.2	4422
507.4	4401
507.6	4384
507.8	4359
508.0	4337
508.2	4322
508.4	4301
508.6	4275
508.8	4255
509.0	4229
509.2	4210
509.4	4192
509.6	4174
509.8	4158
510.0	4140
510.2	4118
510.4	4099
510.6	4080
510.8	4060
511.0	4048
511.2	4026
511.4	4013
511.6	4000
511.8	3977
512.0	3956
512.2	3943
512.4	3924
512.6	3915
512.8	3899
513.0	3875
513.2	3857
513.4	3843
513.6	3825
513.8	3810
514.0	3782
514.2	3759
514.4	3731
514.6	3705
514.8	3693
515.0	3685
515.2	3670
515.4	3660
515.6	3637
515.8	3616
516.0	3605
516.2	3590
516.4	3577
516.6	3553
516.8	3534
517.0	3520
517.2	3501
517.4	3490
517.6	3480
517.8	3464
518.0	3453
518.2	3442
518.4	3423
518.6	3405
518.8	3384
519.0	3361
519.2	3336
519.4	3320
519.6	3310
519.8	3294
520.0	3282
520.2	3268
520.4	3247
520.6	3232
520.8	3217
521.0	3194
521.2	3179
521.4	3171
521.6	3155
521.8	3143
522.0	3129
522.2	3112
522.4	3093
522.6	3078
522.8	3063
523.0	3049
523.2	3035
523.4	3024
523.6	3011
523.8	2997
524.0	2981
524.2	2960
524.4	2943
524.6	2924
524.8	2918
525.0	2913
525.2	2901
525.4	2885
525.6	2864
525.8	2839
526.0	2822
526.2	2815
526.4	2804
526.6	2791
526.8	2777
527.0	2765
527.2	2753
527.4	2746
527.6	2734
527.8	2720
528.0	2703
528.2	2686
528.4	2671
528.6	2656
528.8	2643
529.0	2633
529.2	2619
529.4	2610
529.6	2603
529.8	2587
530.0	2574
530.2	2560
530.4	2539
530.6	2524
530.8	2515
531.0	2503
531.2	2496
531.4	2484
531.6	2465
531.8	2445
532.0	2434
532.2	2421
532.4	2412
532.6	2405
532.8	2394
533.0	2379
533.2	2368
533.4	2349
533.6	2333
533.8	2323
534.0	2317
534.2	2306
534.4	2297
534.6	2281
534.8	2271
535.0	2262
535.2	2255
535.4	2239
535.6	2225
535.8	2208
536.0	2200
536.2	2190
536.4	2179
536.6	2165
536.8	2152
537.0	2141
537.2	2134
537.4	2122
537.6	2115
537.8	2108
538.0	2093
538.2	2084
538.4	2074
538.6	2063
538.8	2057
539.0	2047
539.2	2031
539.4	2019
539.6	2007
539.8	1993
540.0	1984
540.2	1975
540.4	1964
540.6	1955
540.8	1942
541.0	1926
541.2	1917
541.4	1908
541.6	1899
541.8	1893
542.0	1882
542.2	1876
542.4	1871
542.6	1860
542.8	1850
543.0	1835
543.2	1824
543.4	1818
543.6	1811
543.8	1800
544.0	1787
544.2	1778
544.4	1775
544.6	1766
544.8	1753
545.0	1739
545.2	1725
545.4	1714
545.6	1711
545.8	1702
546.0	1690
546.2	1684
546.4	1679
546.6	1668
546.8	1664
547.0	1652
547.2	1638
547.4	1627
547.6	1618
547.8	1604
548.0	1599
548.2	1591
548.4	1586
548.6	1581
548.8	1571
549.0	1560
549.2	1551
549.4	1542
549.6	1534
549.8	1526
550.0	1512
550.2	1501
550.4	1491
550.6	1486
550.8	1483
551.0	1477
551.2	1469
551.4	1460
551.6	1449
551.8	1442
552.0	1438
552.2	1426
552.4	1416
552.6	1404
552.8	1391
553.0	1383
553.2	1381
553.4	1373
553.6	1370
553.8	1361
554.0	1353
554.2	1345
554.4	1340
554.6	1333
554.8	1329
555.0	1323
555.2	1313
555.4	1303
555.6	1295
555.8	1289
556.0	1283
556.2	1278
556.4	1268
556.6	1260
556.8	1255
557.0	1251
557.2	1242
557.4	1233
557.6	1222
557.8	1215
558.0	1210
558.2	1206
558.4	1198
558.6	1190
558.8	1182
559.0	1176
559.2	1172
559.4	1171
559.6	1163
559.8	1153
560.0	1147
560.2	1138
560.4	1130
560.6	1124
560.8	1117
561.0	1112
561.2	1112
561.4	1107
561.6	1100
561.8	1092
562.0	1085
562.2	1077
562.4	1068
562.6	1062
562.8	1053
563.0	1047
563.2	1045
563.4	1042
563.6	1038
563.8	1037
564.0	1028
564.2	1020
564.4	1010
564.6	1001
564.8	993.4
565.0	989.2
565.2	980.4
565.4	972.3
565.6	969.3
565.8	965.4
566.0	963.6
566.2	961.8
566.4	958.1
566.6	951.1
566.8	947.2
567.0	939.3
567.2	932.5
567.4	926.2
567.6	924.0
567.8	918.9
568.0	915.6
568.2	907.0
568.4	897.7
568.6	890.9
568.8	887.3
569.0	882.2
569.2	883.6
569.4	880.1
569.6	877.1
569.8	873.5
570.0	867.0
570.2	860.5
570.4	854.9
570.6	848.2
570.8	841.6
571.0	835.2
571.2	828.7
571.4	828.9
571.6	824.5
571.8	818.0
572.0	813.6
572.2	808.4
572.4	806.4
572.6	804.2
572.8	799.3
573.0	790.8
573.2	784.0
573.4	777.9
573.6	774.5
573.8	770.6
574.0	771.1
574.2	771.6
574.4	767.8
574.6	760.7
574.8	752.6
575.0	746.2
575.2	743.1
575.4	740.5
575.6	736.2
575.8	728.4
576.0	722.3
576.2	718.9
576.4	714.6
576.6	712.0
576.8	709.2
577.0	701.9
577.2	697.1
577.4	696.7
577.6	695.9
577.8	694.2
578.0	689.1
578.2	682.3
578.4	675.5
578.6	671.1
578.8	667.9
579.0	665.2
579.2	662.1
579.4	662.7
579.6	659.4
579.8	656.3
580.0	650.7
580.2	646.2
580.4	641.5
580.6	640.4
580.8	637.0
581.0	632.8
581.2	628.6
581.4	624.0
581.6	619.1
581.8	614.5
582.0	610.5
582.2	606.7
582.4	605.1
582.6	602.2
582.8	597.2
583.0	592.9
583.2	592.2
583.4	593.9
583.6	591.6
583.8	586.0
584.0	582.0
584.2	577.5
584.4	577.7
584.6	577.1
584.8	571.8
585.0	565.4
585.2	562.5
585.4	558.4
585.6	555.8
585.8	551.7
586.0	548.1
586.2	546.2
586.4	542.5
586.6	539.2
586.8	536.3
587.0	532.1
587.2	529.3
587.4	525.2
587.6	521.6
587.8	518.7
588.0	519.3
588.2	518.7
588.4	516.7
588.6	510.7
588.8	505.3
589.0	498.9
589.2	496.7
589.4	497.0
589.6	495.8
589.8	494.8
590.0	490.8
590.2	486.3
590.4	482.9
590.6	481.1
590.8	480.9
591.0	478.7
591.2	474.7
591.4	469.3
591.6	464.2
591.8	458.6
592.0	458.6
592.2	457.4
592.4	457.2
592.6	457.4
592.8	456.7
593.0	451.6
593.2	447.6
593.4	443.4
593.6	439.3
593.8	437.6
594.0	435.7
594.2	433.9
594.4	429.9
594.6	426.7
594.8	423.4
595.0	421.4
595.2	420.5
595.4	420.2
595.6	417.0
595.8	413.2
596.0	410.2
596.2	406.8
596.4	406.9
596.6	406.4
596.8	405.9
597.0	402.2
597.2	398.3
597.4	395.2
597.6	392.4
597.8	389.8
598.0	388.0
598.2	386.4
598.4	383.4
598.6	382.5
598.8	378.4
599.0	375.1
599.2	373.6
599.4	373.2
599.6	370.5
599.8	369.2
600.0	366.6
600.2	362.2
600.4	360.5
600.6	357.1
600.8	354.0
601.0	353.5
601.2	354.0
601.4	352.8
601.6	351.8
601.8	348.2
602.0	345.5
602.2	343.4
602.4	341.4
602.6	339.5
602.8	337.0
603.0	336.0
603.2	336.2
603.4	334.6
603.6	331.8
603.8	329.9
604.0	327.1
604.2	325.6
604.4	324.8
604.6	322.5
604.8	319.1
605.0	318.6
605.2	316.3
605.4	315.8
605.6	313.9
605.8	312.3
606.0	308.8
606.2	306.5
606.4	302.6
606.6	302.0
606.8	298.8
607.0	298.3
607.2	297.0
607.4	296.0
607.6	292.4
607.8	291.7
608.0	290.6
608.2	290.2
608.4	286.9
608.6	283.6
608.8	280.5
609.0	279.0
609.2	280.1
609.4	280.1
609.6	276.3
609.8	273.4
610.0	272.4
610.2	271.0
610.4	271.4
610.6	271.2
610.8	269.0
611.0	266.4
611.2	262.5
611.4	260.0
611.6	257.5
611.8	256.6
612.0	256.0
612.2	255.4
612.4	254.4
612.6	254.2
612.8	252.7
613.0	251.4
613.2	249.5
613.4	247.9
613.6	246.8
613.8	245.3
614.0	243.4
614.2	240.6
614.4	238.8
614.6	237.1
614.8	236.3
615.0	235.6
615.2	234.4
615.4	231.9
615.6	229.7
615.8	226.5
616.0	223.9
616.2	223.8
616.4	224.2
616.6	224.2
616.8	223.7
617.0	222.3
617.2	220.3
617.4	218.7
617.6	218.0
617.8	215.5
618.0	213.1
618.2	211.4
618.4	209.3
618.6	209.2
618.8	210.1
619.0	208.0
619.2	206.8
619.4	205.8
619.6	204.1
619.8	203.8
620.0	203.2
620.2	201.1
620.4	200.0
620.6	199.5
620.8	196.8
621.0	194.4
621.2	192.5
621.4	191.1
621.6	191.2
621.8	191.9
622.0	191.7
622.2	191.4
622.4	189.5
622.6	186.9
622.8	185.3
623.0	183.5
623.2	182.3
623.4	181.4
623.6	180.9
623.8	179.4
624.0	179.3
624.2	178.4
624.4	177.4
624.6	176.2
624.8	175.4
625.0	173.4
625.2	173.3
625.4	171.9
625.6	172.1
625.8	170.0
626.0	167.8
626.2	166.6
626.4	165.9
626.6	164.7
626.8	163.6
627.0	161.5
627.2	161.7
627.4	161.9
627.6	162.1
627.8	161.0
628.0	158.5
628.2	156.8
628.4	156.9
628.6	155.3
628.8	155.2
629.0	154.0
629.2	152.5
629.4	151.2
629.6	150.3
629.8	148.1
630.0	147.2
630.2	146.1
630.4	145.4
630.6	144.7
630.8	144.6
631.0	143.7
631.2	142.5
631.4	140.9
631.6	139.1
631.8	138.0
632.0	137.6
632.2	138.4
632.4	137.8
632.6	137.9
632.8	136.5
633.0	135.7
633.2	134.5
633.4	133.6
633.6	131.0
633.8	129.8
634.0	129.1
634.2	129.7
634.4	129.0
634.6	128.3
634.8	126.5
635.0	125.3
635.2	125.5
635.4	126.1
635.6	125.0
635.8	123.9
636.0	122.5
636.2	120.9
636.4	120.1
636.6	119.9
636.8	120.3
637.0	120.2
637.2	119.9
637.4	118.5
637.6	116.6
637.8	115.5
638.0	114.5
638.2	114.2
638.4	114.9
638.6	115.1
638.8	114.0
639.0	113.5
639.2	110.9
639.4	108.9
639.6	108.0
639.8	108.3
640.0	107.7
640.2	107.8
640.4	107.3
640.6	106.8
640.8	105.9
641.0	106.2
641.2	105.7
641.4	104.5
641.6	104.5
641.8	103.8
642.0	102.8
642.2	102.0
642.4	101.4
642.6	99.91
642.8	99.97
643.0	98.76
643.2	98.81
643.4	97.35
643.6	96.71
643.8	95.89
644.0	95.20
644.2	94.42
644.4	93.68
644.6	92.20
644.8	92.55
645.0	93.14
645.2	93.10
645.4	93.39
645.6	92.50
645.8	90.89
646.0	88.97
646.2	87.27
646.4	86.24
646.6	86.87
646.8	87.76
647.0	87.76
647.2	87.24
647.4	86.17
647.6	85.31
647.8	84.93
648.0	83.47
648.2	82.87
648.4	82.10
648.6	82.08
648.8	81.94
649.0	82.17
649.2	81.92
649.4	82.32
649.6	81.46
649.8	81.01
650.0	79.10
650.2	77.54
650.4	77.07
650.6	76.42
650.8	77.17
651.0	76.77
651.2	76.68
651.4	76.42
651.6	75.98
651.8	74.69
652.0	75.02
652.2	73.84
652.4	73.79
652.6	73.65
652.8	72.38
653.0	71.44
653.2	71.55
653.4	71.28
653.6	70.25
653.8	70.31
654.0	69.88
654.2	69.71
654.4	69.48
654.6	68.78
654.8	66.79
655.0	65.99
655.2	65.77
655.4	65.96
655.6	65.71
655.8	65.67
656.0	65.24
656.2	64.98
656.4	64.93
656.6	65.20
656.8	64.32
657.0	64.11
657.2	63.83
657.4	63.31
657.6	62.62
657.8	62.10
658.0	61.14
658.2	60.96
658.4	60.64
658.6	59.87
658.8	59.38
659.0	59.34
659.2	58.67
659.4	58.55
659.6	58.46
659.8	57.43
660.0	56.51
660.2	56.16
660.4	56.09
660.6	56.77
660.8	57.42
661.0	57.17
661.2	56.14
661.4	55.11
661.6	55.01
661.8	54.27
662.0	53.54
662.2	53.49
662.4	53.56
662.6	53.87
662.8	54.21
663.0	53.19
663.2	52.41
663.4	51.87
663.6	51.15
663.8	50.87
664.0	50.44
664.2	50.05
664.4	49.86
664.6	49.44
664.8	48.67
665.0	48.50
665.2	48.57
665.4	48.93
665.6	48.60
665.8	48.02
666.0	46.81
666.2	46.59
666.4	46.53
666.6	46.72
666.8	47.12
667.0	47.31
667.2	46.59
667.4	46.83
667.6	46.29
667.8	45.77
668.0	45.94
668.2	45.22
668.4	44.68
668.6	44.40
668.8	43.46
669.0	43.37
669.2	43.76
669.4	43.26
669.6	42.93
669.8	42.55
670.0	41.82
670.2	41.70
670.4	42.21
670.6	42.06
670.8	41.89
671.0	41.15
671.2	40.93
671.4	40.38
671.6	40.59
671.8	40.83
672.0	41.36
672.2	40.99
672.4	40.88
672.6	40.21
672.8	39.47
673.0	38.88
673.2	38.15
673.4	38.05
673.6	37.73
673.8	37.71
674.0	37.23
674.2	37.27
674.4	36.66
674.6	36.65
674.8	36.49
675.0	36.72
675.2	36.27
675.4	36.44
675.6	36.05
675.8	35.43
676.0	35.33
676.2	35.58
676.4	35.35
676.6	35.22
676.8	35.21
677.0	34.39
677.2	34.00
677.4	33.76
677.6	33.60
677.8	33.59
678.0	33.09
678.2	32.68
678.4	32.46
678.6	32.04
678.8	32.23
679.0	32.37
679.2	31.62
679.4	31.60
679.6	31.42
679.8	31.45
680.0	31.81

