Sample:	'20211010A(EM)
File name:	B-CDs 3.FDS
Run date:	'14:54:37, 06/08/2023
Operator:	Administrator
Comment:	'

Instrument
Model:	F-4700 FL Spectrophotometer
Serial number:	2019-001
ROM Version:	5J24010 00

Instrument parameters
Measurement type:	Wavelength scan
Scan mode:	Emission
Data mode:	Fluorescence
EX WL:	350.0 nm
EM  Start WL:	370.0 nm
EM  End WL:	680.0 nm
Scan speed:	1200 nm/min
Delay:	0.0 s
EX Slit:	10.0 nm
EM Slit:	10.0 nm
PMT Voltage:	515 V
Response:	0.002 s
Corrected spectra:	Off
Shutter control:	On

Processing performed
Savitsky-Golay smoothed
Smoothing order:	3
Number of points:	7
Number of times:	1

Peak integration
Integration method:	Rectangular
Sensitivity:	1
Threshold:	1.000

Peaks
No.	Start(nm)	Apex(nm)	End(nm)	Height(Data)	Valley(nm)	Valley(Data)
1	370.0	384.2	385.8	5.649	385.8	4.388
2	385.8	472.4	473.0	1762	473.0	1746
3	473.0	478.8	479.4	1820	479.4	1796
4	479.4	485.4	487.0	1878	487.0	1864
5	487.0	487.6	488.2	1878	488.2	1863
6	488.2	489.2	490.0	1881	490.0	1869
7	490.0	491.0	492.8	1883	492.8	1856
8	492.8	493.8	499.0	1862	499.0	1816
9	499.0	499.6	657.2	1831	657.2	67.85
10	657.2	657.8	672.8	70.12	672.8	40.99
11	672.8	673.8	680.0	44.31	680.0	34.59

Data points
nm	Data
370.0	4.011
370.2	4.532
370.4	4.583
370.6	4.390
370.8	4.169
371.0	4.342
371.2	4.291
371.4	4.364
371.6	4.534
371.8	4.638
372.0	4.915
372.2	4.502
372.4	4.251
372.6	3.993
372.8	4.218
373.0	4.148
373.2	4.165
373.4	4.001
373.6	4.164
373.8	4.047
374.0	4.311
374.2	4.348
374.4	4.005
374.6	4.009
374.8	3.981
375.0	3.832
375.2	4.030
375.4	4.339
375.6	4.413
375.8	4.465
376.0	4.416
376.2	4.190
376.4	4.133
376.6	4.090
376.8	3.913
377.0	4.080
377.2	3.987
377.4	4.124
377.6	3.794
377.8	3.631
378.0	3.698
378.2	4.196
378.4	4.198
378.6	4.521
378.8	4.625
379.0	4.616
379.2	4.508
379.4	4.465
379.6	4.316
379.8	4.428
380.0	4.615
380.2	4.516
380.4	4.536
380.6	4.705
380.8	4.831
381.0	4.873
381.2	4.939
381.4	4.743
381.6	4.924
381.8	4.966
382.0	4.821
382.2	4.890
382.4	5.055
382.6	4.690
382.8	4.696
383.0	4.702
383.2	4.475
383.4	4.741
383.6	4.997
383.8	5.104
384.0	5.569
384.2	5.649
384.4	5.356
384.6	5.125
384.8	5.135
385.0	4.975
385.2	5.156
385.4	4.659
385.6	4.390
385.8	4.388
386.0	4.542
386.2	4.435
386.4	4.916
386.6	4.703
386.8	5.045
387.0	5.602
387.2	5.567
387.4	5.522
387.6	5.672
387.8	4.893
388.0	4.851
388.2	5.085
388.4	5.182
388.6	5.166
388.8	5.221
389.0	4.862
389.2	5.035
389.4	5.307
389.6	5.739
389.8	5.819
390.0	6.055
390.2	6.115
390.4	5.764
390.6	5.386
390.8	5.307
391.0	5.616
391.2	5.751
391.4	6.099
391.6	5.873
391.8	5.872
392.0	6.037
392.2	6.331
392.4	6.726
392.6	7.157
392.8	6.944
393.0	6.716
393.2	6.396
393.4	6.238
393.6	7.025
393.8	7.553
394.0	7.558
394.2	7.199
394.4	6.544
394.6	6.527
394.8	6.856
395.0	7.352
395.2	7.747
395.4	7.958
395.6	7.949
395.8	7.870
396.0	7.610
396.2	7.882
396.4	8.209
396.6	8.523
396.8	8.794
397.0	8.384
397.2	8.414
397.4	8.575
397.6	8.409
397.8	8.093
398.0	8.220
398.2	8.847
398.4	9.667
398.6	10.23
398.8	10.35
399.0	10.10
399.2	9.807
399.4	10.48
399.6	10.88
399.8	10.62
400.0	11.17
400.2	11.60
400.4	11.64
400.6	12.88
400.8	13.59
401.0	13.48
401.2	14.25
401.4	14.63
401.6	14.53
401.8	15.50
402.0	15.68
402.2	16.25
402.4	16.85
402.6	17.17
402.8	17.54
403.0	17.86
403.2	18.06
403.4	19.72
403.6	20.46
403.8	21.49
404.0	22.29
404.2	23.22
404.4	23.94
404.6	25.72
404.8	26.38
405.0	27.35
405.2	27.33
405.4	29.05
405.6	30.18
405.8	31.95
406.0	33.42
406.2	33.79
406.4	34.36
406.6	36.22
406.8	37.68
407.0	40.49
407.2	41.60
407.4	42.68
407.6	44.37
407.8	46.08
408.0	47.11
408.2	49.75
408.4	50.18
408.6	53.65
408.8	56.29
409.0	58.96
409.2	60.41
409.4	62.65
409.6	64.11
409.8	66.96
410.0	69.27
410.2	72.24
410.4	74.55
410.6	77.94
410.8	80.66
411.0	83.65
411.2	86.57
411.4	90.27
411.6	93.16
411.8	94.99
412.0	97.21
412.2	100.9
412.4	105.0
412.6	109.9
412.8	114.2
413.0	117.3
413.2	122.2
413.4	127.4
413.6	132.5
413.8	136.5
414.0	141.2
414.2	146.4
414.4	152.1
414.6	156.2
414.8	161.9
415.0	166.2
415.2	173.1
415.4	177.8
415.6	182.1
415.8	185.0
416.0	192.8
416.2	198.4
416.4	206.3
416.6	210.8
416.8	215.5
417.0	221.1
417.2	230.9
417.4	235.4
417.6	241.2
417.8	247.1
418.0	254.3
418.2	263.6
418.4	270.4
418.6	275.2
418.8	281.6
419.0	290.1
419.2	297.4
419.4	306.0
419.6	310.1
419.8	317.3
420.0	326.8
420.2	333.2
420.4	341.9
420.6	351.8
420.8	359.2
421.0	369.4
421.2	379.1
421.4	384.7
421.6	393.2
421.8	399.8
422.0	407.6
422.2	416.5
422.4	422.4
422.6	429.3
422.8	437.4
423.0	446.1
423.2	457.4
423.4	466.8
423.6	472.7
423.8	479.8
424.0	488.8
424.2	501.2
424.4	512.8
424.6	522.9
424.8	530.1
425.0	537.3
425.2	543.4
425.4	555.2
425.6	567.1
425.8	577.1
426.0	588.8
426.2	598.3
426.4	604.3
426.6	610.1
426.8	616.2
427.0	619.3
427.2	629.6
427.4	638.2
427.6	648.3
427.8	658.5
428.0	668.5
428.2	676.7
428.4	687.8
428.6	698.0
428.8	708.4
429.0	718.3
429.2	726.2
429.4	734.2
429.6	740.9
429.8	750.2
430.0	760.5
430.2	772.5
430.4	779.0
430.6	789.3
430.8	796.9
431.0	802.9
431.2	809.1
431.4	819.0
431.6	825.9
431.8	838.7
432.0	850.3
432.2	858.9
432.4	863.8
432.6	871.6
432.8	876.8
433.0	881.9
433.2	892.2
433.4	900.4
433.6	905.1
433.8	911.0
434.0	915.7
434.2	923.3
434.4	939.9
434.6	949.6
434.8	955.7
435.0	960.2
435.2	958.1
435.4	964.8
435.6	975.9
435.8	985.8
436.0	995.3
436.2	1007
436.4	1011
436.6	1017
436.8	1019
437.0	1024
437.2	1032
437.4	1044
437.6	1054
437.8	1061
438.0	1064
438.2	1071
438.4	1077
438.6	1082
438.8	1086
439.0	1092
439.2	1101
439.4	1106
439.6	1108
439.8	1115
440.0	1122
440.2	1127
440.4	1134
440.6	1139
440.8	1146
441.0	1154
441.2	1161
441.4	1161
441.6	1159
441.8	1159
442.0	1165
442.2	1167
442.4	1173
442.6	1181
442.8	1181
443.0	1185
443.2	1189
443.4	1191
443.6	1195
443.8	1202
444.0	1209
444.2	1218
444.4	1221
444.6	1226
444.8	1227
445.0	1236
445.2	1242
445.4	1246
445.6	1248
445.8	1254
446.0	1266
446.2	1278
446.4	1280
446.6	1281
446.8	1277
447.0	1278
447.2	1290
447.4	1294
447.6	1296
447.8	1295
448.0	1297
448.2	1301
448.4	1308
448.6	1309
448.8	1312
449.0	1311
449.2	1322
449.4	1331
449.6	1333
449.8	1336
450.0	1338
450.2	1332
450.4	1338
450.6	1347
450.8	1350
451.0	1361
451.2	1367
451.4	1372
451.6	1380
451.8	1389
452.0	1392
452.2	1394
452.4	1390
452.6	1389
452.8	1389
453.0	1390
453.2	1393
453.4	1392
453.6	1394
453.8	1400
454.0	1412
454.2	1425
454.4	1434
454.6	1437
454.8	1439
455.0	1443
455.2	1441
455.4	1446
455.6	1445
455.8	1453
456.0	1457
456.2	1466
456.4	1466
456.6	1471
456.8	1472
457.0	1477
457.2	1477
457.4	1482
457.6	1481
457.8	1485
458.0	1493
458.2	1497
458.4	1507
458.6	1514
458.8	1515
459.0	1517
459.2	1519
459.4	1517
459.6	1527
459.8	1531
460.0	1533
460.2	1538
460.4	1545
460.6	1547
460.8	1551
461.0	1553
461.2	1556
461.4	1568
461.6	1578
461.8	1581
462.0	1584
462.2	1589
462.4	1598
462.6	1601
462.8	1598
463.0	1602
463.2	1600
463.4	1603
463.6	1611
463.8	1610
464.0	1610
464.2	1623
464.4	1619
464.6	1623
464.8	1627
465.0	1627
465.2	1630
465.4	1640
465.6	1647
465.8	1658
466.0	1665
466.2	1663
466.4	1657
466.6	1657
466.8	1659
467.0	1670
467.2	1677
467.4	1677
467.6	1676
467.8	1681
468.0	1681
468.2	1687
468.4	1691
468.6	1688
468.8	1689
469.0	1700
469.2	1706
469.4	1711
469.6	1715
469.8	1716
470.0	1722
470.2	1729
470.4	1732
470.6	1729
470.8	1729
471.0	1731
471.2	1732
471.4	1728
471.6	1728
471.8	1734
472.0	1748
472.2	1759
472.4	1762
472.6	1753
472.8	1749
473.0	1746
473.2	1747
473.4	1750
473.6	1758
473.8	1767
474.0	1771
474.2	1773
474.4	1768
474.6	1761
474.8	1762
475.0	1770
475.2	1774
475.4	1777
475.6	1776
475.8	1776
476.0	1779
476.2	1791
476.4	1798
476.6	1798
476.8	1797
477.0	1792
477.2	1793
477.4	1798
477.6	1804
477.8	1807
478.0	1808
478.2	1800
478.4	1808
478.6	1815
478.8	1820
479.0	1810
479.2	1804
479.4	1796
479.6	1800
479.8	1813
480.0	1822
480.2	1823
480.4	1827
480.6	1826
480.8	1832
481.0	1835
481.2	1839
481.4	1839
481.6	1842
481.8	1842
482.0	1843
482.2	1842
482.4	1848
482.6	1846
482.8	1845
483.0	1846
483.2	1847
483.4	1854
483.6	1858
483.8	1858
484.0	1855
484.2	1860
484.4	1859
484.6	1861
484.8	1864
485.0	1868
485.2	1875
485.4	1878
485.6	1871
485.8	1864
486.0	1864
486.2	1868
486.4	1875
486.6	1875
486.8	1871
487.0	1864
487.2	1867
487.4	1876
487.6	1878
487.8	1872
488.0	1866
488.2	1863
488.4	1864
488.6	1874
488.8	1876
489.0	1880
489.2	1881
489.4	1877
489.6	1870
489.8	1872
490.0	1869
490.2	1870
490.4	1874
490.6	1879
490.8	1879
491.0	1883
491.2	1879
491.4	1869
491.6	1868
491.8	1870
492.0	1868
492.2	1868
492.4	1865
492.6	1861
492.8	1856
493.0	1857
493.2	1857
493.4	1859
493.6	1859
493.8	1862
494.0	1860
494.2	1859
494.4	1860
494.6	1859
494.8	1853
495.0	1855
495.2	1858
495.4	1853
495.6	1852
495.8	1851
496.0	1848
496.2	1856
496.4	1856
496.6	1852
496.8	1849
497.0	1848
497.2	1840
497.4	1841
497.6	1834
497.8	1835
498.0	1832
498.2	1834
498.4	1828
498.6	1822
498.8	1818
499.0	1816
499.2	1819
499.4	1826
499.6	1831
499.8	1828
500.0	1826
500.2	1819
500.4	1812
500.6	1807
500.8	1809
501.0	1805
501.2	1804
501.4	1799
501.6	1797
501.8	1795
502.0	1787
502.2	1780
502.4	1773
502.6	1768
502.8	1776
503.0	1782
503.2	1776
503.4	1772
503.6	1768
503.8	1760
504.0	1756
504.2	1756
504.4	1754
504.6	1754
504.8	1757
505.0	1754
505.2	1748
505.4	1743
505.6	1739
505.8	1734
506.0	1731
506.2	1734
506.4	1729
506.6	1728
506.8	1723
507.0	1714
507.2	1709
507.4	1707
507.6	1693
507.8	1693
508.0	1690
508.2	1688
508.4	1685
508.6	1683
508.8	1674
509.0	1675
509.2	1678
509.4	1680
509.6	1676
509.8	1673
510.0	1671
510.2	1666
510.4	1664
510.6	1659
510.8	1655
511.0	1646
511.2	1649
511.4	1644
511.6	1642
511.8	1643
512.0	1638
512.2	1630
512.4	1626
512.6	1616
512.8	1609
513.0	1609
513.2	1612
513.4	1617
513.6	1617
513.8	1614
514.0	1604
514.2	1596
514.4	1593
514.6	1587
514.8	1579
515.0	1575
515.2	1565
515.4	1565
515.6	1563
515.8	1564
516.0	1561
516.2	1562
516.4	1552
516.6	1544
516.8	1539
517.0	1537
517.2	1534
517.4	1537
517.6	1532
517.8	1532
518.0	1527
518.2	1522
518.4	1510
518.6	1499
518.8	1490
519.0	1497
519.2	1493
519.4	1497
519.6	1495
519.8	1489
520.0	1485
520.2	1487
520.4	1475
520.6	1469
520.8	1469
521.0	1468
521.2	1464
521.4	1461
521.6	1449
521.8	1439
522.0	1435
522.2	1434
522.4	1431
522.6	1431
522.8	1427
523.0	1426
523.2	1424
523.4	1423
523.6	1422
523.8	1419
524.0	1412
524.2	1407
524.4	1406
524.6	1403
524.8	1403
525.0	1402
525.2	1392
525.4	1385
525.6	1379
525.8	1372
526.0	1372
526.2	1374
526.4	1369
526.6	1367
526.8	1362
527.0	1355
527.2	1356
527.4	1353
527.6	1348
527.8	1347
528.0	1342
528.2	1340
528.4	1339
528.6	1335
528.8	1332
529.0	1329
529.2	1328
529.4	1328
529.6	1325
529.8	1323
530.0	1313
530.2	1304
530.4	1297
530.6	1291
530.8	1291
531.0	1292
531.2	1288
531.4	1289
531.6	1284
531.8	1282
532.0	1275
532.2	1268
532.4	1264
532.6	1260
532.8	1252
533.0	1250
533.2	1248
533.4	1251
533.6	1251
533.8	1247
534.0	1242
534.2	1242
534.4	1237
534.6	1238
534.8	1231
535.0	1220
535.2	1217
535.4	1213
535.6	1207
535.8	1206
536.0	1200
536.2	1193
536.4	1193
536.6	1194
536.8	1194
537.0	1190
537.2	1181
537.4	1176
537.6	1174
537.8	1171
538.0	1171
538.2	1164
538.4	1159
538.6	1155
538.8	1149
539.0	1145
539.2	1146
539.4	1138
539.6	1135
539.8	1134
540.0	1130
540.2	1131
540.4	1127
540.6	1120
540.8	1117
541.0	1116
541.2	1111
541.4	1109
541.6	1104
541.8	1102
542.0	1104
542.2	1105
542.4	1100
542.6	1097
542.8	1089
543.0	1077
543.2	1074
543.4	1076
543.6	1078
543.8	1076
544.0	1074
544.2	1069
544.4	1067
544.6	1061
544.8	1052
545.0	1043
545.2	1039
545.4	1038
545.6	1038
545.8	1036
546.0	1031
546.2	1026
546.4	1020
546.6	1015
546.8	1011
547.0	1013
547.2	1013
547.4	1008
547.6	1004
547.8	998.1
548.0	992.0
548.2	989.0
548.4	989.2
548.6	988.3
548.8	986.4
549.0	983.3
549.2	977.2
549.4	970.8
549.6	966.4
549.8	965.7
550.0	958.1
550.2	953.5
550.4	944.6
550.6	940.6
550.8	940.1
551.0	941.9
551.2	936.6
551.4	935.2
551.6	932.2
551.8	926.8
552.0	922.7
552.2	917.9
552.4	914.7
552.6	917.1
552.8	917.2
553.0	911.7
553.2	906.0
553.4	902.9
553.6	897.7
553.8	892.5
554.0	888.8
554.2	886.8
554.4	887.9
554.6	886.9
554.8	882.7
555.0	876.3
555.2	875.0
555.4	875.1
555.6	878.0
555.8	873.1
556.0	871.6
556.2	864.4
556.4	856.6
556.6	846.9
556.8	843.2
557.0	839.6
557.2	842.9
557.4	841.0
557.6	837.8
557.8	834.0
558.0	830.2
558.2	824.5
558.4	823.6
558.6	817.3
558.8	810.4
559.0	806.4
559.2	801.2
559.4	799.4
559.6	802.6
559.8	804.7
560.0	800.1
560.2	796.4
560.4	791.3
560.6	786.0
560.8	787.4
561.0	792.8
561.2	788.0
561.4	783.8
561.6	777.3
561.8	770.7
562.0	769.2
562.2	773.1
562.4	768.5
562.6	764.0
562.8	758.0
563.0	752.3
563.2	747.6
563.4	748.6
563.6	745.2
563.8	742.4
564.0	737.2
564.2	733.2
564.4	730.4
564.6	729.5
564.8	726.4
565.0	721.9
565.2	718.7
565.4	716.0
565.6	711.9
565.8	711.6
566.0	712.6
566.2	711.3
566.4	711.7
566.6	706.2
566.8	700.2
567.0	695.8
567.2	692.1
567.4	690.3
567.6	690.9
567.8	689.1
568.0	689.8
568.2	686.3
568.4	681.7
568.6	678.2
568.8	675.0
569.0	673.2
569.2	668.3
569.4	663.0
569.6	654.5
569.8	650.7
570.0	650.8
570.2	653.6
570.4	651.8
570.6	650.7
570.8	644.2
571.0	642.7
571.2	643.0
571.4	638.5
571.6	637.1
571.8	633.6
572.0	628.0
572.2	626.7
572.4	624.5
572.6	622.2
572.8	624.6
573.0	622.9
573.2	618.3
573.4	615.9
573.6	611.0
573.8	609.0
574.0	606.3
574.2	602.9
574.4	599.1
574.6	594.9
574.8	591.5
575.0	588.4
575.2	588.9
575.4	590.8
575.6	590.9
575.8	586.6
576.0	581.9
576.2	576.6
576.4	574.8
576.6	574.5
576.8	573.8
577.0	573.1
577.2	571.5
577.4	566.7
577.6	564.2
577.8	561.3
578.0	556.6
578.2	553.8
578.4	552.6
578.6	550.0
578.8	549.7
579.0	548.9
579.2	542.3
579.4	537.4
579.6	535.4
579.8	534.8
580.0	532.1
580.2	528.6
580.4	524.3
580.6	520.8
580.8	520.0
581.0	520.6
581.2	521.0
581.4	519.2
581.6	519.6
581.8	515.6
582.0	512.6
582.2	508.7
582.4	508.0
582.6	504.4
582.8	502.8
583.0	499.7
583.2	498.2
583.4	496.0
583.6	495.5
583.8	493.4
584.0	492.4
584.2	490.1
584.4	486.0
584.6	484.5
584.8	483.2
585.0	484.4
585.2	485.9
585.4	482.2
585.6	478.2
585.8	473.7
586.0	469.0
586.2	466.0
586.4	461.4
586.6	455.7
586.8	455.6
587.0	453.3
587.2	455.1
587.4	457.0
587.6	454.5
587.8	450.1
588.0	445.8
588.2	444.0
588.4	444.0
588.6	445.2
588.8	444.9
589.0	442.7
589.2	435.9
589.4	435.6
589.6	430.7
589.8	426.9
590.0	427.3
590.2	423.7
590.4	417.3
590.6	418.9
590.8	417.1
591.0	418.3
591.2	418.9
591.4	416.7
591.6	413.4
591.8	410.6
592.0	407.3
592.2	405.0
592.4	402.0
592.6	399.4
592.8	401.2
593.0	400.3
593.2	399.2
593.4	396.8
593.6	396.3
593.8	392.3
594.0	390.7
594.2	389.4
594.4	384.9
594.6	380.7
594.8	379.8
595.0	378.2
595.2	377.0
595.4	378.8
595.6	374.0
595.8	371.7
596.0	371.2
596.2	370.8
596.4	371.1
596.6	370.3
596.8	365.0
597.0	363.1
597.2	362.4
597.4	362.0
597.6	360.4
597.8	359.9
598.0	356.7
598.2	356.6
598.4	354.3
598.6	350.4
598.8	346.7
599.0	345.2
599.2	342.2
599.4	340.1
599.6	338.9
599.8	339.7
600.0	340.4
600.2	340.9
600.4	338.1
600.6	334.3
600.8	332.0
601.0	330.6
601.2	330.6
601.4	329.8
601.6	328.5
601.8	327.1
602.0	325.0
602.2	320.7
602.4	319.7
602.6	317.0
602.8	318.2
603.0	317.7
603.2	316.6
603.4	313.6
603.6	312.8
603.8	307.7
604.0	307.4
604.2	305.9
604.4	304.0
604.6	304.4
604.8	304.8
605.0	303.3
605.2	302.6
605.4	302.5
605.6	299.6
605.8	297.8
606.0	294.1
606.2	291.1
606.4	288.5
606.6	288.9
606.8	288.4
607.0	288.8
607.2	286.5
607.4	282.6
607.6	279.3
607.8	277.1
608.0	276.8
608.2	275.8
608.4	277.0
608.6	277.1
608.8	276.3
609.0	274.1
609.2	271.4
609.4	269.6
609.6	269.2
609.8	269.8
610.0	266.1
610.2	264.2
610.4	263.1
610.6	261.9
610.8	257.6
611.0	256.0
611.2	252.9
611.4	254.8
611.6	257.3
611.8	255.9
612.0	252.7
612.2	250.4
612.4	248.7
612.6	247.4
612.8	248.1
613.0	247.5
613.2	244.8
613.4	244.8
613.6	241.8
613.8	238.7
614.0	236.4
614.2	235.7
614.4	235.0
614.6	235.3
614.8	233.8
615.0	232.3
615.2	228.9
615.4	226.8
615.6	226.8
615.8	225.6
616.0	227.0
616.2	227.4
616.4	224.9
616.6	220.8
616.8	218.4
617.0	217.4
617.2	218.5
617.4	218.7
617.6	216.9
617.8	215.1
618.0	213.6
618.2	212.9
618.4	212.4
618.6	210.6
618.8	209.8
619.0	209.1
619.2	207.8
619.4	206.5
619.6	204.6
619.8	202.4
620.0	201.0
620.2	198.9
620.4	199.2
620.6	199.0
620.8	198.7
621.0	197.3
621.2	196.4
621.4	194.1
621.6	193.7
621.8	194.5
622.0	195.0
622.2	193.0
622.4	192.9
622.6	192.4
622.8	191.8
623.0	191.3
623.2	190.5
623.4	188.2
623.6	186.6
623.8	185.7
624.0	184.7
624.2	183.3
624.4	182.3
624.6	180.0
624.8	178.4
625.0	176.4
625.2	176.1
625.4	177.9
625.6	180.5
625.8	178.0
626.0	176.0
626.2	173.3
626.4	171.0
626.6	170.8
626.8	172.5
627.0	169.5
627.2	167.5
627.4	166.3
627.6	164.7
627.8	163.7
628.0	164.0
628.2	162.0
628.4	159.5
628.6	158.3
628.8	157.9
629.0	157.8
629.2	158.7
629.4	156.7
629.6	154.8
629.8	154.7
630.0	154.4
630.2	154.2
630.4	155.6
630.6	154.8
630.8	153.9
631.0	152.7
631.2	150.1
631.4	148.6
631.6	148.2
631.8	149.0
632.0	148.7
632.2	147.2
632.4	145.5
632.6	143.3
632.8	141.9
633.0	142.9
633.2	142.6
633.4	142.2
633.6	139.5
633.8	137.0
634.0	136.7
634.2	135.8
634.4	135.0
634.6	133.2
634.8	130.6
635.0	131.1
635.2	132.7
635.4	133.1
635.6	134.4
635.8	132.9
636.0	130.2
636.2	128.7
636.4	129.1
636.6	130.3
636.8	131.6
637.0	131.4
637.2	129.4
637.4	126.4
637.6	123.8
637.8	124.0
638.0	122.0
638.2	120.6
638.4	120.6
638.6	119.7
638.8	118.6
639.0	119.8
639.2	118.6
639.4	118.0
639.6	117.3
639.8	116.3
640.0	115.8
640.2	115.7
640.4	115.7
640.6	114.1
640.8	111.8
641.0	110.6
641.2	109.3
641.4	109.4
641.6	109.0
641.8	108.4
642.0	108.9
642.2	110.3
642.4	108.1
642.6	107.4
642.8	106.4
643.0	105.8
643.2	105.5
643.4	106.3
643.6	104.5
643.8	103.3
644.0	102.9
644.2	101.4
644.4	99.99
644.6	101.3
644.8	101.6
645.0	101.9
645.2	101.2
645.4	99.43
645.6	98.94
645.8	99.33
646.0	98.03
646.2	97.29
646.4	96.00
646.6	95.23
646.8	95.51
647.0	95.57
647.2	95.34
647.4	94.32
647.6	92.17
647.8	91.28
648.0	90.15
648.2	89.67
648.4	90.20
648.6	90.77
648.8	89.80
649.0	90.26
649.2	89.77
649.4	89.35
649.6	88.40
649.8	88.27
650.0	87.83
650.2	86.66
650.4	86.24
650.6	86.35
650.8	84.97
651.0	83.49
651.2	82.10
651.4	82.22
651.6	83.12
651.8	83.70
652.0	82.92
652.2	81.20
652.4	80.06
652.6	80.61
652.8	79.46
653.0	77.09
653.2	76.30
653.4	75.81
653.6	77.18
653.8	77.11
654.0	75.65
654.2	75.63
654.4	77.22
654.6	76.15
654.8	75.15
655.0	72.07
655.2	70.77
655.4	70.86
655.6	72.33
655.8	73.59
656.0	73.72
656.2	72.48
656.4	72.45
656.6	69.86
656.8	67.86
657.0	68.18
657.2	67.85
657.4	68.40
657.6	69.48
657.8	70.12
658.0	69.82
658.2	69.56
658.4	68.61
658.6	68.08
658.8	67.58
659.0	67.33
659.2	66.20
659.4	65.41
659.6	65.45
659.8	64.48
660.0	65.35
660.2	65.90
660.4	64.80
660.6	63.94
660.8	63.55
661.0	62.12
661.2	63.27
661.4	63.39
661.6	62.57
661.8	61.82
662.0	60.09
662.2	58.89
662.4	58.63
662.6	58.06
662.8	56.74
663.0	56.91
663.2	56.47
663.4	56.67
663.6	56.57
663.8	56.69
664.0	55.92
664.2	56.43
664.4	56.85
664.6	56.47
664.8	56.45
665.0	54.73
665.2	54.26
665.4	54.51
665.6	54.62
665.8	53.67
666.0	53.08
666.2	51.40
666.4	51.44
666.6	52.35
666.8	53.56
667.0	53.73
667.2	52.75
667.4	52.10
667.6	50.99
667.8	50.49
668.0	50.89
668.2	50.26
668.4	50.44
668.6	50.02
668.8	49.00
669.0	49.21
669.2	49.29
669.4	48.41
669.6	48.17
669.8	47.63
670.0	47.18
670.2	47.96
670.4	48.35
670.6	47.32
670.8	46.68
671.0	46.61
671.2	45.14
671.4	44.54
671.6	44.20
671.8	43.44
672.0	43.87
672.2	43.51
672.4	42.48
672.6	41.97
672.8	40.99
673.0	41.08
673.2	41.49
673.4	42.45
673.6	43.98
673.8	44.31
674.0	43.36
674.2	42.48
674.4	41.40
674.6	40.87
674.8	40.78
675.0	39.72
675.2	39.03
675.4	39.29
675.6	39.72
675.8	39.66
676.0	40.16
676.2	39.65
676.4	39.25
676.6	39.12
676.8	38.77
677.0	38.61
677.2	38.95
677.4	39.05
677.6	38.62
677.8	37.98
678.0	37.99
678.2	37.54
678.4	37.03
678.6	36.25
678.8	35.45
679.0	35.22
679.2	35.94
679.4	36.11
679.6	36.20
679.8	35.79
680.0	34.59

