Sample:	'20211010A(EM)
File name:	B-CDs 4 400.FDS
Run date:	'15:01:51, 06/08/2023
Operator:	Administrator
Comment:	'

Instrument
Model:	F-4700 FL Spectrophotometer
Serial number:	2019-001
ROM Version:	5J24010 00

Instrument parameters
Measurement type:	Wavelength scan
Scan mode:	Emission
Data mode:	Fluorescence
EX WL:	350.0 nm
EM  Start WL:	370.0 nm
EM  End WL:	680.0 nm
Scan speed:	1200 nm/min
Delay:	0.0 s
EX Slit:	10.0 nm
EM Slit:	10.0 nm
PMT Voltage:	510 V
Response:	0.002 s
Corrected spectra:	Off
Shutter control:	On

Processing performed
Savitsky-Golay smoothed
Smoothing order:	3
Number of points:	7
Number of times:	1

Peak integration
Integration method:	Rectangular
Sensitivity:	1
Threshold:	1.000

Peaks
No.	Start(nm)	Apex(nm)	End(nm)	Height(Data)	Valley(nm)	Valley(Data)
1	370.0	373.4	374.6	7.775	374.6	6.768
2	374.6	465.6	466.2	4527	466.2	4500
3	466.2	468.0	468.6	4546	468.6	4515
4	468.6	471.2	472.4	4564	472.4	4546
5	472.4	473.0	474.4	4560	474.4	4525
6	474.4	475.2	477.4	4544	477.4	4489
7	477.4	478.2	481.8	4501	481.8	4430
8	481.8	482.6	662.8	4456	662.8	63.20
9	662.8	663.6	674.4	65.55	674.4	44.26
10	674.4	675.2	680.0	46.01	680.0	38.84

Data points
nm	Data
370.0	6.554
370.2	6.235
370.4	6.504
370.6	6.984
370.8	6.973
371.0	6.871
371.2	6.611
371.4	6.771
371.6	6.843
371.8	6.911
372.0	6.369
372.2	6.446
372.4	6.192
372.6	6.304
372.8	6.628
373.0	6.959
373.2	7.181
373.4	7.775
373.6	7.669
373.8	7.631
374.0	7.383
374.2	7.368
374.4	7.027
374.6	6.768
374.8	6.784
375.0	6.848
375.2	7.463
375.4	8.020
375.6	7.908
375.8	7.458
376.0	7.290
376.2	7.052
376.4	7.488
376.6	7.780
376.8	7.752
377.0	7.641
377.2	7.950
377.4	7.975
377.6	7.811
377.8	7.472
378.0	7.169
378.2	7.361
378.4	8.348
378.6	8.869
378.8	8.708
379.0	8.428
379.2	8.667
379.4	8.933
379.6	9.433
379.8	9.986
380.0	9.781
380.2	9.514
380.4	9.830
380.6	9.745
380.8	9.860
381.0	10.16
381.2	9.956
381.4	9.617
381.6	9.809
381.8	10.15
382.0	10.49
382.2	10.32
382.4	10.16
382.6	10.19
382.8	10.28
383.0	10.35
383.2	10.78
383.4	11.02
383.6	11.79
383.8	12.73
384.0	12.51
384.2	11.78
384.4	12.03
384.6	12.14
384.8	12.59
385.0	12.75
385.2	12.80
385.4	12.50
385.6	12.88
385.8	13.46
386.0	13.75
386.2	14.32
386.4	15.36
386.6	15.99
386.8	16.16
387.0	16.40
387.2	16.26
387.4	17.00
387.6	17.65
387.8	17.64
388.0	17.77
388.2	17.71
388.4	17.66
388.6	18.83
388.8	19.68
389.0	19.82
389.2	20.44
389.4	20.69
389.6	21.01
389.8	21.99
390.0	22.68
390.2	22.85
390.4	23.19
390.6	24.28
390.8	25.27
391.0	25.80
391.2	26.46
391.4	26.96
391.6	27.46
391.8	28.71
392.0	29.70
392.2	30.82
392.4	31.80
392.6	34.11
392.8	35.67
393.0	36.22
393.2	37.37
393.4	38.18
393.6	38.87
393.8	40.16
394.0	41.65
394.2	42.99
394.4	45.33
394.6	47.04
394.8	48.62
395.0	49.17
395.2	50.77
395.4	52.64
395.6	54.26
395.8	55.94
396.0	56.55
396.2	57.96
396.4	59.96
396.6	62.17
396.8	65.30
397.0	67.56
397.2	69.09
397.4	71.52
397.6	73.65
397.8	76.94
398.0	80.43
398.2	82.85
398.4	85.11
398.6	87.28
398.8	89.03
399.0	92.66
399.2	97.54
399.4	102.4
399.6	107.6
399.8	111.1
400.0	114.2
400.2	117.4
400.4	121.9
400.6	125.8
400.8	131.1
401.0	134.6
401.2	139.5
401.4	142.8
401.6	146.7
401.8	151.6
402.0	158.8
402.2	166.2
402.4	173.9
402.6	180.0
402.8	185.5
403.0	190.0
403.2	195.0
403.4	199.1
403.6	204.6
403.8	212.8
404.0	220.4
404.2	228.2
404.4	235.4
404.6	241.1
404.8	248.1
405.0	255.3
405.2	261.6
405.4	270.5
405.6	280.8
405.8	292.6
406.0	305.3
406.2	313.7
406.4	320.4
406.6	327.6
406.8	337.4
407.0	347.1
407.2	358.4
407.4	365.6
407.6	376.1
407.8	384.6
408.0	396.5
408.2	410.1
408.4	423.4
408.6	433.4
408.8	447.5
409.0	456.5
409.2	468.6
409.4	482.9
409.6	493.2
409.8	504.8
410.0	522.8
410.2	539.1
410.4	556.6
410.6	571.5
410.8	582.9
411.0	596.7
411.2	609.8
411.4	627.6
411.6	641.1
411.8	658.8
412.0	672.7
412.2	689.4
412.4	699.2
412.6	718.0
412.8	733.0
413.0	753.4
413.2	767.8
413.4	788.2
413.6	806.8
413.8	828.0
414.0	849.6
414.2	866.2
414.4	883.7
414.6	901.9
414.8	922.2
415.0	941.4
415.2	959.2
415.4	974.9
415.6	995.7
415.8	1014
416.0	1035
416.2	1057
416.4	1079
416.6	1102
416.8	1126
417.0	1147
417.2	1166
417.4	1183
417.6	1202
417.8	1225
418.0	1245
418.2	1270
418.4	1294
418.6	1317
418.8	1342
419.0	1362
419.2	1376
419.4	1396
419.6	1418
419.8	1441
420.0	1468
420.2	1494
420.4	1517
420.6	1542
420.8	1566
421.0	1588
421.2	1615
421.4	1641
421.6	1656
421.8	1676
422.0	1694
422.2	1718
422.4	1747
422.6	1776
422.8	1798
423.0	1824
423.2	1844
423.4	1864
423.6	1885
423.8	1907
424.0	1929
424.2	1961
424.4	1989
424.6	2012
424.8	2037
425.0	2056
425.2	2074
425.4	2101
425.6	2126
425.8	2147
426.0	2169
426.2	2189
426.4	2214
426.6	2243
426.8	2278
427.0	2309
427.2	2333
427.4	2351
427.6	2365
427.8	2381
428.0	2410
428.2	2436
428.4	2462
428.6	2485
428.8	2510
429.0	2537
429.2	2562
429.4	2582
429.6	2596
429.8	2607
430.0	2626
430.2	2659
430.4	2687
430.6	2717
430.8	2737
431.0	2754
431.2	2771
431.4	2795
431.6	2812
431.8	2826
432.0	2848
432.2	2874
432.4	2890
432.6	2914
432.8	2930
433.0	2950
433.2	2978
433.4	2998
433.6	3012
433.8	3029
434.0	3044
434.2	3064
434.4	3087
434.6	3104
434.8	3122
435.0	3141
435.2	3158
435.4	3173
435.6	3192
435.8	3206
436.0	3224
436.2	3245
436.4	3271
436.6	3293
436.8	3301
437.0	3312
437.2	3325
437.4	3336
437.6	3365
437.8	3389
438.0	3393
438.2	3411
438.4	3427
438.6	3436
438.8	3446
439.0	3457
439.2	3466
439.4	3488
439.6	3513
439.8	3535
440.0	3545
440.2	3559
440.4	3575
440.6	3585
440.8	3602
441.0	3610
441.2	3620
441.4	3632
441.6	3648
441.8	3646
442.0	3664
442.2	3670
442.4	3694
442.6	3713
442.8	3727
443.0	3730
443.2	3742
443.4	3758
443.6	3778
443.8	3798
444.0	3805
444.2	3807
444.4	3807
444.6	3816
444.8	3823
445.0	3839
445.2	3852
445.4	3868
445.6	3876
445.8	3892
446.0	3903
446.2	3914
446.4	3924
446.6	3924
446.8	3923
447.0	3934
447.2	3943
447.4	3955
447.6	3974
447.8	3988
448.0	4002
448.2	4006
448.4	4015
448.6	4015
448.8	4022
449.0	4024
449.2	4028
449.4	4035
449.6	4060
449.8	4072
450.0	4083
450.2	4075
450.4	4083
450.6	4094
450.8	4122
451.0	4133
451.2	4147
451.4	4147
451.6	4149
451.8	4142
452.0	4149
452.2	4146
452.4	4163
452.6	4174
452.8	4186
453.0	4187
453.2	4190
453.4	4190
453.6	4208
453.8	4218
454.0	4231
454.2	4232
454.4	4228
454.6	4233
454.8	4246
455.0	4256
455.2	4273
455.4	4279
455.6	4289
455.8	4289
456.0	4289
456.2	4288
456.4	4297
456.6	4301
456.8	4318
457.0	4321
457.2	4322
457.4	4325
457.6	4332
457.8	4341
458.0	4344
458.2	4344
458.4	4344
458.6	4350
458.8	4364
459.0	4381
459.2	4395
459.4	4399
459.6	4407
459.8	4405
460.0	4406
460.2	4408
460.4	4418
460.6	4427
460.8	4438
461.0	4438
461.2	4443
461.4	4447
461.6	4457
461.8	4468
462.0	4467
462.2	4468
462.4	4467
462.6	4473
462.8	4482
463.0	4485
463.2	4481
463.4	4484
463.6	4484
463.8	4494
464.0	4505
464.2	4515
464.4	4515
464.6	4512
464.8	4508
465.0	4509
465.2	4519
465.4	4527
465.6	4527
465.8	4516
466.0	4501
466.2	4500
466.4	4504
466.6	4518
466.8	4532
467.0	4531
467.2	4526
467.4	4528
467.6	4535
467.8	4541
468.0	4546
468.2	4540
468.4	4528
468.6	4515
468.8	4520
469.0	4534
469.2	4541
469.4	4552
469.6	4553
469.8	4550
470.0	4547
470.2	4551
470.4	4539
470.6	4540
470.8	4554
471.0	4561
471.2	4564
471.4	4563
471.6	4551
471.8	4547
472.0	4550
472.2	4548
472.4	4546
472.6	4552
472.8	4557
473.0	4560
473.2	4555
473.4	4557
473.6	4553
473.8	4550
474.0	4542
474.2	4536
474.4	4525
474.6	4532
474.8	4537
475.0	4542
475.2	4544
475.4	4536
475.6	4527
475.8	4520
476.0	4512
476.2	4522
476.4	4532
476.6	4523
476.8	4518
477.0	4504
477.2	4491
477.4	4489
477.6	4491
477.8	4500
478.0	4497
478.2	4501
478.4	4500
478.6	4500
478.8	4497
479.0	4499
479.2	4493
479.4	4489
479.6	4492
479.8	4492
480.0	4474
480.2	4465
480.4	4457
480.6	4449
480.8	4462
481.0	4465
481.2	4457
481.4	4447
481.6	4435
481.8	4430
482.0	4439
482.2	4447
482.4	4455
482.6	4456
482.8	4454
483.0	4442
483.2	4429
483.4	4426
483.6	4416
483.8	4415
484.0	4412
484.2	4401
484.4	4391
484.6	4392
484.8	4383
485.0	4385
485.2	4378
485.4	4389
485.6	4389
485.8	4392
486.0	4378
486.2	4363
486.4	4349
486.6	4350
486.8	4335
487.0	4338
487.2	4336
487.4	4332
487.6	4331
487.8	4321
488.0	4300
488.2	4292
488.4	4293
488.6	4290
488.8	4293
489.0	4292
489.2	4286
489.4	4287
489.6	4291
489.8	4278
490.0	4273
490.2	4259
490.4	4244
490.6	4236
490.8	4235
491.0	4225
491.2	4220
491.4	4214
491.6	4199
491.8	4200
492.0	4194
492.2	4191
492.4	4187
492.6	4194
492.8	4187
493.0	4188
493.2	4170
493.4	4142
493.6	4128
493.8	4122
494.0	4114
494.2	4103
494.4	4084
494.6	4063
494.8	4066
495.0	4069
495.2	4075
495.4	4063
495.6	4045
495.8	4032
496.0	4036
496.2	4038
496.4	4033
496.6	4021
496.8	4004
497.0	3982
497.2	3973
497.4	3963
497.6	3952
497.8	3949
498.0	3948
498.2	3946
498.4	3931
498.6	3914
498.8	3895
499.0	3888
499.2	3881
499.4	3874
499.6	3853
499.8	3836
500.0	3819
500.2	3822
500.4	3814
500.6	3806
500.8	3795
501.0	3796
501.2	3782
501.4	3773
501.6	3756
501.8	3741
502.0	3729
502.2	3718
502.4	3710
502.6	3695
502.8	3687
503.0	3684
503.2	3672
503.4	3648
503.6	3637
503.8	3619
504.0	3616
504.2	3621
504.4	3610
504.6	3599
504.8	3586
505.0	3569
505.2	3558
505.4	3549
505.6	3536
505.8	3526
506.0	3515
506.2	3496
506.4	3479
506.6	3462
506.8	3454
507.0	3450
507.2	3444
507.4	3434
507.6	3422
507.8	3407
508.0	3403
508.2	3392
508.4	3381
508.6	3372
508.8	3359
509.0	3345
509.2	3333
509.4	3317
509.6	3312
509.8	3309
510.0	3297
510.2	3279
510.4	3265
510.6	3242
510.8	3237
511.0	3238
511.2	3231
511.4	3216
511.6	3195
511.8	3170
512.0	3160
512.2	3147
512.4	3145
512.6	3137
512.8	3127
513.0	3124
513.2	3113
513.4	3090
513.6	3084
513.8	3070
514.0	3057
514.2	3037
514.4	3027
514.6	3019
514.8	3021
515.0	3017
515.2	3008
515.4	2987
515.6	2973
515.8	2965
516.0	2952
516.2	2950
516.4	2943
516.6	2935
516.8	2917
517.0	2901
517.2	2892
517.4	2893
517.6	2875
517.8	2861
518.0	2847
518.2	2827
518.4	2825
518.6	2810
518.8	2792
519.0	2780
519.2	2777
519.4	2774
519.6	2769
519.8	2753
520.0	2736
520.2	2727
520.4	2717
520.6	2710
520.8	2701
521.0	2694
521.2	2679
521.4	2673
521.6	2665
521.8	2657
522.0	2643
522.2	2629
522.4	2608
522.6	2596
522.8	2584
523.0	2574
523.2	2559
523.4	2548
523.6	2536
523.8	2531
524.0	2526
524.2	2518
524.4	2510
524.6	2495
524.8	2483
525.0	2480
525.2	2477
525.4	2461
525.6	2445
525.8	2422
526.0	2411
526.2	2406
526.4	2406
526.6	2398
526.8	2388
527.0	2376
527.2	2374
527.4	2362
527.6	2357
527.8	2349
528.0	2338
528.2	2326
528.4	2312
528.6	2298
528.8	2280
529.0	2274
529.2	2269
529.4	2259
529.6	2248
529.8	2250
530.0	2238
530.2	2233
530.4	2229
530.6	2214
530.8	2203
531.0	2197
531.2	2186
531.4	2172
531.6	2163
531.8	2149
532.0	2138
532.2	2138
532.4	2137
532.6	2133
532.8	2122
533.0	2104
533.2	2086
533.4	2080
533.6	2069
533.8	2063
534.0	2061
534.2	2058
534.4	2051
534.6	2039
534.8	2022
535.0	2016
535.2	2012
535.4	2006
535.6	1997
535.8	1980
536.0	1967
536.2	1958
536.4	1947
536.6	1937
536.8	1934
537.0	1924
537.2	1919
537.4	1906
537.6	1903
537.8	1891
538.0	1881
538.2	1870
538.4	1868
538.6	1865
538.8	1867
539.0	1858
539.2	1847
539.4	1833
539.6	1825
539.8	1821
540.0	1805
540.2	1796
540.4	1791
540.6	1790
540.8	1783
541.0	1777
541.2	1759
541.4	1746
541.6	1735
541.8	1733
542.0	1722
542.2	1724
542.4	1715
542.6	1703
542.8	1692
543.0	1681
543.2	1668
543.4	1664
543.6	1658
543.8	1654
544.0	1651
544.2	1644
544.4	1634
544.6	1620
544.8	1617
545.0	1614
545.2	1617
545.4	1608
545.6	1595
545.8	1578
546.0	1572
546.2	1563
546.4	1560
546.6	1551
546.8	1539
547.0	1529
547.2	1529
547.4	1522
547.6	1516
547.8	1512
548.0	1507
548.2	1502
548.4	1493
548.6	1483
548.8	1476
549.0	1469
549.2	1465
549.4	1462
549.6	1456
549.8	1444
550.0	1433
550.2	1426
550.4	1418
550.6	1413
550.8	1406
551.0	1403
551.2	1393
551.4	1385
551.6	1376
551.8	1368
552.0	1363
552.2	1363
552.4	1353
552.6	1341
552.8	1337
553.0	1330
553.2	1331
553.4	1326
553.6	1319
553.8	1315
554.0	1316
554.2	1309
554.4	1301
554.6	1289
554.8	1273
555.0	1267
555.2	1262
555.4	1260
555.6	1253
555.8	1246
556.0	1242
556.2	1235
556.4	1231
556.6	1223
556.8	1212
557.0	1205
557.2	1201
557.4	1198
557.6	1200
557.8	1193
558.0	1184
558.2	1176
558.4	1167
558.6	1160
558.8	1158
559.0	1152
559.2	1146
559.4	1142
559.6	1138
559.8	1128
560.0	1124
560.2	1117
560.4	1110
560.6	1105
560.8	1101
561.0	1098
561.2	1098
561.4	1092
561.6	1080
561.8	1072
562.0	1062
562.2	1062
562.4	1059
562.6	1057
562.8	1050
563.0	1047
563.2	1037
563.4	1031
563.6	1023
563.8	1020
564.0	1019
564.2	1018
564.4	1011
564.6	1002
564.8	995.5
565.0	989.7
565.2	986.2
565.4	982.2
565.6	976.6
565.8	970.0
566.0	965.6
566.2	962.3
566.4	959.7
566.6	957.2
566.8	955.5
567.0	948.5
567.2	942.6
567.4	933.8
567.6	926.4
567.8	922.2
568.0	920.2
568.2	914.8
568.4	911.9
568.6	907.8
568.8	905.3
569.0	901.8
569.2	896.6
569.4	887.5
569.6	882.6
569.8	880.0
570.0	876.6
570.2	874.9
570.4	873.2
570.6	867.9
570.8	867.2
571.0	861.3
571.2	853.8
571.4	844.0
571.6	841.1
571.8	835.9
572.0	836.6
572.2	833.3
572.4	830.1
572.6	823.7
572.8	819.6
573.0	810.5
573.2	805.3
573.4	798.5
573.6	796.9
573.8	795.8
574.0	793.8
574.2	790.6
574.4	787.5
574.6	782.2
574.8	778.1
575.0	772.4
575.2	764.9
575.4	759.1
575.6	757.4
575.8	756.3
576.0	755.1
576.2	750.5
576.4	745.3
576.6	743.4
576.8	738.7
577.0	735.6
577.2	732.5
577.4	723.6
577.6	721.2
577.8	721.2
578.0	717.0
578.2	718.1
578.4	717.2
578.6	710.0
578.8	702.0
579.0	694.5
579.2	690.9
579.4	691.5
579.6	691.5
579.8	685.2
580.0	679.9
580.2	675.5
580.4	674.5
580.6	668.7
580.8	665.4
581.0	659.3
581.2	659.0
581.4	659.1
581.6	655.2
581.8	646.5
582.0	642.4
582.2	638.7
582.4	638.7
582.6	642.0
582.8	642.5
583.0	640.0
583.2	633.6
583.4	623.9
583.6	617.3
583.8	615.5
584.0	617.2
584.2	616.8
584.4	612.2
584.6	606.0
584.8	602.9
585.0	600.3
585.2	597.6
585.4	595.9
585.6	593.3
585.8	591.8
586.0	589.7
586.2	583.3
586.4	578.1
586.6	574.5
586.8	571.7
587.0	571.1
587.2	569.9
587.4	563.8
587.6	561.3
587.8	556.2
588.0	554.6
588.2	554.1
588.4	553.4
588.6	553.1
588.8	549.9
589.0	546.2
589.2	543.5
589.4	540.0
589.6	535.3
589.8	533.4
590.0	529.1
590.2	525.7
590.4	519.8
590.6	515.3
590.8	510.9
591.0	509.3
591.2	507.2
591.4	508.8
591.6	509.1
591.8	511.5
592.0	510.0
592.2	506.5
592.4	499.0
592.6	496.0
592.8	492.7
593.0	492.4
593.2	492.1
593.4	489.0
593.6	484.1
593.8	481.2
594.0	479.5
594.2	475.4
594.4	476.6
594.6	471.9
594.8	465.8
595.0	460.1
595.2	459.6
595.4	457.0
595.6	458.9
595.8	458.2
596.0	456.1
596.2	453.6
596.4	452.9
596.6	445.3
596.8	441.0
597.0	440.2
597.2	439.4
597.4	440.3
597.6	439.4
597.8	435.4
598.0	429.2
598.2	424.2
598.4	420.1
598.6	416.2
598.8	415.7
599.0	419.4
599.2	419.3
599.4	417.8
599.6	416.2
599.8	414.3
600.0	409.6
600.2	407.0
600.4	405.2
600.6	399.3
600.8	395.6
601.0	395.2
601.2	390.8
601.4	390.5
601.6	388.7
601.8	384.4
602.0	383.0
602.2	382.9
602.4	383.1
602.6	383.1
602.8	379.4
603.0	376.3
603.2	374.0
603.4	373.0
603.6	373.3
603.8	371.6
604.0	367.2
604.2	364.6
604.4	363.8
604.6	363.5
604.8	360.8
605.0	356.5
605.2	351.2
605.4	348.5
605.6	349.6
605.8	350.1
606.0	348.8
606.2	345.4
606.4	342.5
606.6	341.7
606.8	341.4
607.0	338.4
607.2	336.4
607.4	335.6
607.6	333.8
607.8	335.3
608.0	333.3
608.2	330.3
608.4	326.8
608.6	325.6
608.8	323.6
609.0	324.9
609.2	321.2
609.4	317.2
609.6	312.4
609.8	310.5
610.0	311.0
610.2	312.0
610.4	311.2
610.6	310.0
610.8	307.4
611.0	305.2
611.2	304.9
611.4	302.9
611.6	299.8
611.8	297.3
612.0	295.5
612.2	291.5
612.4	292.7
612.6	291.6
612.8	287.3
613.0	286.3
613.2	286.3
613.4	284.4
613.6	284.5
613.8	282.5
614.0	277.5
614.2	277.5
614.4	276.1
614.6	275.4
614.8	273.3
615.0	274.6
615.2	271.3
615.4	273.4
615.6	270.6
615.8	267.9
616.0	263.1
616.2	262.7
616.4	258.5
616.6	259.2
616.8	256.6
617.0	255.2
617.2	253.0
617.4	253.7
617.6	251.0
617.8	248.9
618.0	247.4
618.2	245.5
618.4	245.2
618.6	247.3
618.8	245.6
619.0	244.5
619.2	242.6
619.4	238.1
619.6	233.1
619.8	230.6
620.0	229.9
620.2	232.8
620.4	233.3
620.6	235.0
620.8	231.8
621.0	228.7
621.2	227.7
621.4	226.1
621.6	222.7
621.8	223.0
622.0	221.6
622.2	220.1
622.4	220.9
622.6	220.4
622.8	219.3
623.0	215.9
623.2	213.4
623.4	209.1
623.6	208.3
623.8	209.7
624.0	209.7
624.2	207.3
624.4	205.5
624.6	205.0
624.8	205.2
625.0	204.3
625.2	201.3
625.4	199.8
625.6	198.7
625.8	201.0
626.0	201.4
626.2	198.5
626.4	195.0
626.6	193.7
626.8	192.2
627.0	191.3
627.2	190.6
627.4	189.4
627.6	187.3
627.8	185.1
628.0	183.2
628.2	182.3
628.4	181.6
628.6	181.7
628.8	182.0
629.0	180.9
629.2	179.5
629.4	179.2
629.6	177.6
629.8	176.5
630.0	175.6
630.2	174.5
630.4	173.6
630.6	171.7
630.8	170.9
631.0	171.7
631.2	171.3
631.4	170.9
631.6	169.3
631.8	166.1
632.0	166.4
632.2	165.8
632.4	163.5
632.6	161.3
632.8	159.2
633.0	158.4
633.2	160.2
633.4	161.0
633.6	160.7
633.8	157.8
634.0	154.2
634.2	150.7
634.4	148.9
634.6	148.3
634.8	148.6
635.0	147.3
635.2	145.6
635.4	147.1
635.6	149.4
635.8	148.9
636.0	148.5
636.2	146.9
636.4	143.8
636.6	144.8
636.8	144.7
637.0	143.4
637.2	142.7
637.4	142.2
637.6	140.2
637.8	139.4
638.0	137.3
638.2	135.3
638.4	132.7
638.6	132.7
638.8	133.1
639.0	133.9
639.2	134.7
639.4	133.9
639.6	132.3
639.8	131.4
640.0	129.4
640.2	129.7
640.4	129.6
640.6	129.6
640.8	129.7
641.0	128.7
641.2	126.0
641.4	125.9
641.6	124.1
641.8	124.1
642.0	124.1
642.2	122.8
642.4	122.1
642.6	121.8
642.8	119.8
643.0	119.6
643.2	118.7
643.4	117.2
643.6	117.5
643.8	117.1
644.0	115.3
644.2	114.7
644.4	111.9
644.6	110.9
644.8	111.5
645.0	111.7
645.2	112.1
645.4	111.7
645.6	110.1
645.8	109.7
646.0	109.8
646.2	108.2
646.4	108.1
646.6	106.2
646.8	104.9
647.0	104.6
647.2	104.3
647.4	103.8
647.6	104.3
647.8	103.5
648.0	103.8
648.2	103.9
648.4	101.4
648.6	99.90
648.8	99.06
649.0	97.91
649.2	98.09
649.4	98.22
649.6	97.59
649.8	97.03
650.0	96.56
650.2	96.33
650.4	94.62
650.6	93.46
650.8	92.42
651.0	91.20
651.2	89.38
651.4	89.72
651.6	90.05
651.8	90.79
652.0	91.11
652.2	91.29
652.4	89.63
652.6	87.76
652.8	85.42
653.0	84.82
653.2	84.60
653.4	85.17
653.6	85.22
653.8	84.70
654.0	82.75
654.2	82.19
654.4	82.52
654.6	83.26
654.8	82.93
655.0	82.86
655.2	81.36
655.4	80.90
655.6	81.47
655.8	80.91
656.0	79.45
656.2	77.93
656.4	77.20
656.6	77.14
656.8	77.81
657.0	77.74
657.2	77.26
657.4	75.99
657.6	77.38
657.8	75.89
658.0	75.04
658.2	73.67
658.4	71.77
658.6	71.39
658.8	72.67
659.0	72.67
659.2	73.63
659.4	72.97
659.6	72.49
659.8	72.28
660.0	72.40
660.2	70.76
660.4	70.71
660.6	68.60
660.8	68.28
661.0	67.05
661.2	67.31
661.4	66.08
661.6	65.34
661.8	64.50
662.0	65.15
662.2	64.30
662.4	64.54
662.6	63.89
662.8	63.20
663.0	63.75
663.2	64.58
663.4	64.91
663.6	65.55
663.8	64.56
664.0	63.72
664.2	62.21
664.4	61.52
664.6	60.66
664.8	60.67
665.0	60.85
665.2	60.29
665.4	60.84
665.6	60.73
665.8	59.18
666.0	59.45
666.2	59.37
666.4	58.34
666.6	58.70
666.8	57.78
667.0	57.23
667.2	57.95
667.4	57.72
667.6	56.24
667.8	55.53
668.0	54.31
668.2	53.51
668.4	54.06
668.6	54.60
668.8	53.12
669.0	52.65
669.2	51.29
669.4	50.54
669.6	51.81
669.8	52.93
670.0	52.83
670.2	52.38
670.4	51.52
670.6	51.34
670.8	51.18
671.0	51.17
671.2	52.01
671.4	51.68
671.6	50.88
671.8	49.92
672.0	48.57
672.2	47.19
672.4	47.70
672.6	47.33
672.8	47.61
673.0	47.49
673.2	47.53
673.4	46.84
673.6	46.92
673.8	45.71
674.0	45.22
674.2	44.31
674.4	44.26
674.6	44.42
674.8	45.19
675.0	45.73
675.2	46.01
675.4	45.56
675.6	44.63
675.8	43.53
676.0	42.33
676.2	42.26
676.4	42.11
676.6	41.79
676.8	41.72
677.0	42.17
677.2	41.90
677.4	41.81
677.6	41.70
677.8	41.43
678.0	40.41
678.2	40.12
678.4	39.67
678.6	39.12
678.8	39.21
679.0	38.33
679.2	37.00
679.4	36.60
679.6	36.93
679.8	37.72
680.0	38.84

