Sample:	'20211010A(EM)
File name:	B-CDs 6 600uM.FDS
Run date:	'15:18:56, 06/08/2023
Operator:	Administrator
Comment:	'

Instrument
Model:	F-4700 FL Spectrophotometer
Serial number:	2019-001
ROM Version:	5J24010 00

Instrument parameters
Measurement type:	Wavelength scan
Scan mode:	Emission
Data mode:	Fluorescence
EX WL:	350.0 nm
EM  Start WL:	370.0 nm
EM  End WL:	680.0 nm
Scan speed:	1200 nm/min
Delay:	0.0 s
EX Slit:	10.0 nm
EM Slit:	10.0 nm
PMT Voltage:	440 V
Response:	0.002 s
Corrected spectra:	Off
Shutter control:	On

Processing performed
Savitsky-Golay smoothed
Smoothing order:	3
Number of points:	7
Number of times:	1

Peak integration
Integration method:	Rectangular
Sensitivity:	1
Threshold:	1.000

Peaks
No.	Start(nm)	Apex(nm)	End(nm)	Height(Data)	Valley(nm)	Valley(Data)
1	370.0	449.2	450.0	8738	450.0	8708
2	450.0	451.0	453.0	8756	453.0	8694
3	453.0	453.8	676.0	8725	676.0	21.06
4	676.0	676.6	680.0	22.19	680.0	18.72

Data points
nm	Data
370.0	13.30
370.2	13.30
370.4	13.72
370.6	14.30
370.8	14.64
371.0	14.53
371.2	14.70
371.4	15.06
371.6	15.67
371.8	15.90
372.0	16.13
372.2	16.19
372.4	16.71
372.6	16.97
372.8	17.29
373.0	17.46
373.2	17.91
373.4	18.02
373.6	18.46
373.8	18.71
374.0	19.24
374.2	19.75
374.4	20.40
374.6	20.83
374.8	21.64
375.0	22.26
375.2	22.98
375.4	23.29
375.6	23.83
375.8	24.52
376.0	25.53
376.2	26.02
376.4	26.30
376.6	26.76
376.8	27.16
377.0	27.78
377.2	28.96
377.4	30.38
377.6	31.28
377.8	32.17
378.0	32.86
378.2	33.60
378.4	34.25
378.6	35.12
378.8	35.79
379.0	36.98
379.2	38.65
379.4	40.48
379.6	41.47
379.8	42.22
380.0	42.97
380.2	44.72
380.4	46.57
380.6	48.41
380.8	49.81
381.0	50.78
381.2	52.19
381.4	54.30
381.6	56.24
381.8	57.83
382.0	59.18
382.2	59.72
382.4	61.26
382.6	63.42
382.8	65.83
383.0	67.86
383.2	69.99
383.4	72.00
383.6	74.56
383.8	77.51
384.0	79.74
384.2	81.98
384.4	84.56
384.6	87.40
384.8	90.47
385.0	93.98
385.2	96.88
385.4	101.0
385.6	104.4
385.8	107.6
386.0	110.9
386.2	114.6
386.4	118.6
386.6	123.9
386.8	127.7
387.0	130.9
387.2	134.0
387.4	137.3
387.6	142.2
387.8	147.8
388.0	153.1
388.2	158.3
388.4	163.9
388.6	168.7
388.8	173.8
389.0	179.3
389.2	185.3
389.4	191.0
389.6	198.0
389.8	204.2
390.0	209.7
390.2	216.9
390.4	225.3
390.6	234.0
390.8	243.1
391.0	251.1
391.2	257.8
391.4	266.0
391.6	273.8
391.8	281.1
392.0	290.0
392.2	299.7
392.4	309.6
392.6	320.1
392.8	329.5
393.0	337.9
393.2	348.1
393.4	359.8
393.6	370.9
393.8	382.7
394.0	393.8
394.2	407.6
394.4	420.1
394.6	433.3
394.8	446.8
395.0	459.5
395.2	471.8
395.4	487.9
395.6	501.6
395.8	515.8
396.0	532.3
396.2	547.0
396.4	562.1
396.6	579.3
396.8	595.8
397.0	613.2
397.2	630.5
397.4	648.4
397.6	666.7
397.8	686.3
398.0	704.9
398.2	724.6
398.4	740.2
398.6	759.4
398.8	780.8
399.0	805.1
399.2	826.3
399.4	849.2
399.6	867.9
399.8	893.1
400.0	918.7
400.2	949.0
400.4	973.2
400.6	998.1
400.8	1020
401.0	1046
401.2	1070
401.4	1098
401.6	1126
401.8	1157
402.0	1188
402.2	1221
402.4	1250
402.6	1275
402.8	1302
403.0	1329
403.2	1358
403.4	1392
403.6	1423
403.8	1454
404.0	1486
404.2	1517
404.4	1547
404.6	1581
404.8	1615
405.0	1651
405.2	1689
405.4	1724
405.6	1764
405.8	1803
406.0	1842
406.2	1880
406.4	1914
406.6	1951
406.8	1992
407.0	2030
407.2	2066
407.4	2102
407.6	2138
407.8	2181
408.0	2219
408.2	2259
408.4	2296
408.6	2333
408.8	2377
409.0	2421
409.2	2467
409.4	2513
409.6	2558
409.8	2604
410.0	2651
410.2	2697
410.4	2744
410.6	2791
410.8	2834
411.0	2873
411.2	2912
411.4	2957
411.6	3009
411.8	3062
412.0	3111
412.2	3151
412.4	3189
412.6	3231
412.8	3281
413.0	3326
413.2	3371
413.4	3418
413.6	3465
413.8	3513
414.0	3567
414.2	3610
414.4	3655
414.6	3702
414.8	3749
415.0	3804
415.2	3856
415.4	3901
415.6	3944
415.8	3984
416.0	4031
416.2	4092
416.4	4140
416.6	4193
416.8	4237
417.0	4282
417.2	4327
417.4	4380
417.6	4426
417.8	4472
418.0	4515
418.2	4563
418.4	4606
418.6	4653
418.8	4703
419.0	4753
419.2	4799
419.4	4845
419.6	4888
419.8	4926
420.0	4972
420.2	5033
420.4	5081
420.6	5130
420.8	5177
421.0	5217
421.2	5265
421.4	5315
421.6	5360
421.8	5406
422.0	5447
422.2	5491
422.4	5531
422.6	5567
422.8	5614
423.0	5658
423.2	5697
423.4	5744
423.6	5786
423.8	5834
424.0	5886
424.2	5936
424.4	5973
424.6	6010
424.8	6049
425.0	6085
425.2	6131
425.4	6181
425.6	6227
425.8	6269
426.0	6312
426.2	6346
426.4	6385
426.6	6428
426.8	6458
427.0	6490
427.2	6536
427.4	6572
427.6	6620
427.8	6660
428.0	6686
428.2	6708
428.4	6744
428.6	6772
428.8	6822
429.0	6875
429.2	6918
429.4	6956
429.6	6987
429.8	7015
430.0	7045
430.2	7080
430.4	7099
430.6	7127
430.8	7155
431.0	7192
431.2	7228
431.4	7279
431.6	7313
431.8	7343
432.0	7366
432.2	7392
432.4	7426
432.6	7476
432.8	7506
433.0	7523
433.2	7537
433.4	7564
433.6	7595
433.8	7624
434.0	7641
434.2	7663
434.4	7696
434.6	7729
434.8	7766
435.0	7790
435.2	7809
435.4	7837
435.6	7863
435.8	7887
436.0	7913
436.2	7936
436.4	7952
436.6	7977
436.8	7996
437.0	8020
437.2	8038
437.4	8055
437.6	8071
437.8	8094
438.0	8114
438.2	8144
438.4	8176
438.6	8200
438.8	8225
439.0	8237
439.2	8242
439.4	8252
439.6	8259
439.8	8282
440.0	8308
440.2	8332
440.4	8359
440.6	8389
440.8	8395
441.0	8413
441.2	8416
441.4	8414
441.6	8417
441.8	8437
442.0	8449
442.2	8465
442.4	8477
442.6	8485
442.8	8497
443.0	8512
443.2	8525
443.4	8530
443.6	8538
443.8	8548
444.0	8554
444.2	8565
444.4	8579
444.6	8594
444.8	8616
445.0	8631
445.2	8640
445.4	8644
445.6	8636
445.8	8628
446.0	8628
446.2	8643
446.4	8665
446.6	8672
446.8	8671
447.0	8671
447.2	8676
447.4	8689
447.6	8698
447.8	8692
448.0	8691
448.2	8691
448.4	8689
448.6	8698
448.8	8717
449.0	8731
449.2	8738
449.4	8737
449.6	8717
449.8	8710
450.0	8708
450.2	8711
450.4	8708
450.6	8724
450.8	8742
451.0	8756
451.2	8747
451.4	8741
451.6	8725
451.8	8723
452.0	8728
452.2	8728
452.4	8719
452.6	8709
452.8	8698
453.0	8694
453.2	8698
453.4	8708
453.6	8723
453.8	8725
454.0	8719
454.2	8708
454.4	8707
454.6	8707
454.8	8714
455.0	8707
455.2	8698
455.4	8688
455.6	8682
455.8	8674
456.0	8667
456.2	8653
456.4	8648
456.6	8643
456.8	8642
457.0	8644
457.2	8637
457.4	8629
457.6	8618
457.8	8605
458.0	8606
458.2	8610
458.4	8609
458.6	8594
458.8	8579
459.0	8569
459.2	8568
459.4	8566
459.6	8564
459.8	8551
460.0	8549
460.2	8536
460.4	8531
460.6	8517
460.8	8507
461.0	8492
461.2	8480
461.4	8471
461.6	8467
461.8	8457
462.0	8455
462.2	8441
462.4	8425
462.6	8421
462.8	8411
463.0	8399
463.2	8384
463.4	8368
463.6	8350
463.8	8334
464.0	8320
464.2	8304
464.4	8288
464.6	8281
464.8	8266
465.0	8254
465.2	8244
465.4	8230
465.6	8217
465.8	8194
466.0	8175
466.2	8152
466.4	8146
466.6	8144
466.8	8136
467.0	8109
467.2	8097
467.4	8073
467.6	8059
467.8	8048
468.0	8030
468.2	8008
468.4	7999
468.6	7984
468.8	7975
469.0	7961
469.2	7944
469.4	7925
469.6	7902
469.8	7881
470.0	7865
470.2	7854
470.4	7857
470.6	7851
470.8	7830
471.0	7807
471.2	7778
471.4	7750
471.6	7734
471.8	7709
472.0	7684
472.2	7671
472.4	7662
472.6	7641
472.8	7621
473.0	7602
473.2	7585
473.4	7573
473.6	7558
473.8	7530
474.0	7514
474.2	7502
474.4	7488
474.6	7473
474.8	7450
475.0	7426
475.2	7417
475.4	7397
475.6	7382
475.8	7360
476.0	7332
476.2	7318
476.4	7299
476.6	7279
476.8	7267
477.0	7249
477.2	7227
477.4	7207
477.6	7181
477.8	7160
478.0	7148
478.2	7133
478.4	7123
478.6	7104
478.8	7088
479.0	7060
479.2	7038
479.4	7007
479.6	6996
479.8	6971
480.0	6953
480.2	6933
480.4	6917
480.6	6900
480.8	6890
481.0	6869
481.2	6856
481.4	6834
481.6	6817
481.8	6795
482.0	6774
482.2	6759
482.4	6739
482.6	6715
482.8	6698
483.0	6684
483.2	6668
483.4	6661
483.6	6637
483.8	6616
484.0	6599
484.2	6580
484.4	6554
484.6	6531
484.8	6506
485.0	6483
485.2	6469
485.4	6452
485.6	6434
485.8	6416
486.0	6397
486.2	6377
486.4	6362
486.6	6339
486.8	6323
487.0	6304
487.2	6276
487.4	6250
487.6	6227
487.8	6196
488.0	6181
488.2	6165
488.4	6137
488.6	6114
488.8	6094
489.0	6074
489.2	6074
489.4	6063
489.6	6041
489.8	6013
490.0	5983
490.2	5960
490.4	5950
490.6	5935
490.8	5916
491.0	5893
491.2	5867
491.4	5845
491.6	5828
491.8	5803
492.0	5779
492.2	5765
492.4	5739
492.6	5721
492.8	5704
493.0	5679
493.2	5657
493.4	5634
493.6	5604
493.8	5591
494.0	5575
494.2	5556
494.4	5535
494.6	5510
494.8	5489
495.0	5469
495.2	5448
495.4	5424
495.6	5404
495.8	5384
496.0	5363
496.2	5335
496.4	5315
496.6	5297
496.8	5283
497.0	5261
497.2	5236
497.4	5210
497.6	5187
497.8	5169
498.0	5149
498.2	5134
498.4	5115
498.6	5089
498.8	5067
499.0	5037
499.2	5013
499.4	4995
499.6	4976
499.8	4955
500.0	4937
500.2	4917
500.4	4896
500.6	4865
500.8	4840
501.0	4818
501.2	4796
501.4	4784
501.6	4763
501.8	4743
502.0	4727
502.2	4703
502.4	4685
502.6	4663
502.8	4642
503.0	4618
503.2	4594
503.4	4566
503.6	4542
503.8	4516
504.0	4497
504.2	4476
504.4	4456
504.6	4443
504.8	4421
505.0	4398
505.2	4374
505.4	4349
505.6	4323
505.8	4304
506.0	4288
506.2	4271
506.4	4256
506.6	4236
506.8	4212
507.0	4189
507.2	4166
507.4	4154
507.6	4140
507.8	4122
508.0	4100
508.2	4078
508.4	4055
508.6	4036
508.8	4013
509.0	3990
509.2	3972
509.4	3956
509.6	3945
509.8	3923
510.0	3903
510.2	3879
510.4	3861
510.6	3840
510.8	3819
511.0	3794
511.2	3773
511.4	3753
511.6	3736
511.8	3726
512.0	3709
512.2	3689
512.4	3673
512.6	3653
512.8	3633
513.0	3620
513.2	3597
513.4	3567
513.6	3544
513.8	3522
514.0	3511
514.2	3504
514.4	3489
514.6	3470
514.8	3449
515.0	3431
515.2	3415
515.4	3402
515.6	3389
515.8	3376
516.0	3360
516.2	3338
516.4	3318
516.6	3297
516.8	3281
517.0	3267
517.2	3249
517.4	3222
517.6	3199
517.8	3180
518.0	3165
518.2	3157
518.4	3144
518.6	3126
518.8	3106
519.0	3088
519.2	3070
519.4	3049
519.6	3037
519.8	3026
520.0	3016
520.2	3002
520.4	2983
520.6	2961
520.8	2941
521.0	2918
521.2	2902
521.4	2886
521.6	2872
521.8	2862
522.0	2848
522.2	2838
522.4	2825
522.6	2813
522.8	2797
523.0	2776
523.2	2758
523.4	2742
523.6	2729
523.8	2714
524.0	2698
524.2	2682
524.4	2669
524.6	2662
524.8	2656
525.0	2641
525.2	2622
525.4	2606
525.6	2592
525.8	2580
526.0	2568
526.2	2552
526.4	2536
526.6	2522
526.8	2506
527.0	2488
527.2	2471
527.4	2458
527.6	2446
527.8	2435
528.0	2423
528.2	2407
528.4	2395
528.6	2386
528.8	2373
529.0	2360
529.2	2346
529.4	2333
529.6	2321
529.8	2304
530.0	2290
530.2	2274
530.4	2262
530.6	2249
530.8	2236
531.0	2223
531.2	2212
531.4	2200
531.6	2188
531.8	2176
532.0	2163
532.2	2153
532.4	2142
532.6	2126
532.8	2112
533.0	2099
533.2	2085
533.4	2077
533.6	2067
533.8	2055
534.0	2046
534.2	2035
534.4	2026
534.6	2016
534.8	2000
535.0	1987
535.2	1971
535.4	1959
535.6	1949
535.8	1943
536.0	1933
536.2	1923
536.4	1910
536.6	1895
536.8	1884
537.0	1878
537.2	1871
537.4	1860
537.6	1851
537.8	1836
538.0	1825
538.2	1816
538.4	1807
538.6	1795
538.8	1785
539.0	1772
539.2	1762
539.4	1752
539.6	1740
539.8	1726
540.0	1718
540.2	1710
540.4	1700
540.6	1692
540.8	1680
541.0	1667
541.2	1658
541.4	1650
541.6	1639
541.8	1629
542.0	1619
542.2	1612
542.4	1602
542.6	1595
542.8	1587
543.0	1578
543.2	1569
543.4	1560
543.6	1551
543.8	1540
544.0	1528
544.2	1516
544.4	1507
544.6	1497
544.8	1490
545.0	1482
545.2	1472
545.4	1462
545.6	1456
545.8	1447
546.0	1441
546.2	1434
546.4	1423
546.6	1413
546.8	1402
547.0	1393
547.2	1384
547.4	1377
547.6	1370
547.8	1361
548.0	1352
548.2	1347
548.4	1338
548.6	1331
548.8	1324
549.0	1316
549.2	1308
549.4	1303
549.6	1292
549.8	1283
550.0	1272
550.2	1265
550.4	1258
550.6	1253
550.8	1245
551.0	1237
551.2	1226
551.4	1218
551.6	1212
551.8	1206
552.0	1200
552.2	1191
552.4	1184
552.6	1180
552.8	1174
553.0	1166
553.2	1156
553.4	1143
553.6	1137
553.8	1136
554.0	1133
554.2	1125
554.4	1115
554.6	1104
554.8	1097
555.0	1092
555.2	1091
555.4	1085
555.6	1079
555.8	1072
556.0	1062
556.2	1054
556.4	1048
556.6	1044
556.8	1037
557.0	1031
557.2	1025
557.4	1017
557.6	1011
557.8	1008
558.0	999.8
558.2	994.6
558.4	989.2
558.6	981.2
558.8	973.6
559.0	965.5
559.2	959.0
559.4	954.8
559.6	951.3
559.8	943.8
560.0	938.5
560.2	932.1
560.4	929.3
560.6	925.6
560.8	919.5
561.0	911.9
561.2	906.6
561.4	900.4
561.6	895.6
561.8	889.4
562.0	882.0
562.2	877.6
562.4	872.4
562.6	867.0
562.8	862.7
563.0	857.4
563.2	849.0
563.4	841.4
563.6	834.6
563.8	828.3
564.0	823.6
564.2	822.5
564.4	817.9
564.6	813.6
564.8	809.3
565.0	803.6
565.2	795.3
565.4	790.7
565.6	783.7
565.8	777.4
566.0	774.7
566.2	771.9
566.4	767.0
566.6	762.1
566.8	755.4
567.0	749.1
567.2	748.5
567.4	743.1
567.6	739.1
567.8	735.0
568.0	729.2
568.2	724.8
568.4	722.4
568.6	716.1
568.8	711.4
569.0	707.5
569.2	703.7
569.4	699.0
569.6	693.5
569.8	688.2
570.0	683.7
570.2	679.9
570.4	678.1
570.6	674.8
570.8	672.0
571.0	669.0
571.2	665.9
571.4	658.3
571.6	652.5
571.8	645.6
572.0	639.0
572.2	634.0
572.4	631.4
572.6	626.1
572.8	625.4
573.0	621.2
573.2	617.2
573.4	614.0
573.6	613.1
573.8	607.9
574.0	603.4
574.2	599.1
574.4	595.4
574.6	592.5
574.8	591.3
575.0	587.0
575.2	582.8
575.4	579.5
575.6	576.1
575.8	572.7
576.0	569.2
576.2	563.4
576.4	558.1
576.6	551.7
576.8	549.0
577.0	547.7
577.2	546.5
577.4	543.1
577.6	540.6
577.8	536.9
578.0	533.2
578.2	529.9
578.4	524.9
578.6	520.7
578.8	518.0
579.0	516.6
579.2	513.7
579.4	513.4
579.6	508.5
579.8	504.9
580.0	499.0
580.2	494.2
580.4	490.1
580.6	488.8
580.8	486.5
581.0	483.8
581.2	479.4
581.4	477.3
581.6	474.9
581.8	472.3
582.0	470.9
582.2	466.2
582.4	462.0
582.6	458.3
582.8	456.6
583.0	455.2
583.2	454.5
583.4	450.5
583.6	445.8
583.8	440.6
584.0	439.2
584.2	437.6
584.4	436.0
584.6	432.1
584.8	429.0
585.0	427.4
585.2	426.6
585.4	423.2
585.6	419.6
585.8	416.6
586.0	414.0
586.2	410.6
586.4	407.5
586.6	402.7
586.8	399.3
587.0	400.4
587.2	399.3
587.4	397.1
587.6	393.7
587.8	390.3
588.0	387.6
588.2	386.5
588.4	385.8
588.6	383.9
588.8	379.6
589.0	377.0
589.2	374.3
589.4	371.6
589.6	370.4
589.8	367.0
590.0	364.0
590.2	361.6
590.4	360.0
590.6	358.9
590.8	357.7
591.0	355.5
591.2	352.2
591.4	349.0
591.6	347.0
591.8	344.8
592.0	344.6
592.2	343.7
592.4	341.4
592.6	338.5
592.8	334.2
593.0	331.5
593.2	330.2
593.4	328.9
593.6	328.5
593.8	326.4
594.0	322.3
594.2	319.2
594.4	317.0
594.6	315.7
594.8	314.9
595.0	314.0
595.2	312.4
595.4	308.1
595.6	304.4
595.8	302.2
596.0	301.1
596.2	300.9
596.4	300.9
596.6	297.1
596.8	293.3
597.0	290.4
597.2	289.7
597.4	288.9
597.6	288.7
597.8	286.4
598.0	283.7
598.2	281.0
598.4	278.8
598.6	275.4
598.8	273.8
599.0	272.1
599.2	272.2
599.4	272.6
599.6	271.0
599.8	267.2
600.0	265.4
600.2	263.0
600.4	262.7
600.6	261.5
600.8	259.3
601.0	256.9
601.2	254.9
601.4	253.5
601.6	252.0
601.8	250.6
602.0	248.5
602.2	246.8
602.4	244.9
602.6	244.7
602.8	242.6
603.0	240.3
603.2	238.0
603.4	236.1
603.6	235.3
603.8	235.1
604.0	233.9
604.2	230.3
604.4	228.2
604.6	225.8
604.8	225.2
605.0	224.9
605.2	224.8
605.4	223.1
605.6	221.7
605.8	218.8
606.0	217.2
606.2	216.5
606.4	216.6
606.6	216.5
606.8	216.0
607.0	213.6
607.2	210.3
607.4	209.4
607.6	208.3
607.8	206.3
608.0	205.3
608.2	204.7
608.4	203.4
608.6	203.3
608.8	202.6
609.0	200.1
609.2	197.9
609.4	196.1
609.6	193.8
609.8	192.3
610.0	191.5
610.2	190.8
610.4	190.8
610.6	189.9
610.8	188.4
611.0	187.3
611.2	185.8
611.4	184.2
611.6	183.3
611.8	181.6
612.0	180.4
612.2	179.3
612.4	177.8
612.6	176.6
612.8	175.2
613.0	173.6
613.2	173.2
613.4	171.9
613.6	170.8
613.8	170.6
614.0	169.5
614.2	169.1
614.4	168.6
614.6	167.1
614.8	164.9
615.0	162.7
615.2	161.4
615.4	161.2
615.6	161.2
615.8	160.3
616.0	158.1
616.2	156.7
616.4	156.0
616.6	154.1
616.8	153.7
617.0	151.3
617.2	150.3
617.4	149.6
617.6	149.6
617.8	148.3
618.0	148.2
618.2	146.9
618.4	146.4
618.6	144.7
618.8	144.0
619.0	142.7
619.2	141.9
619.4	141.2
619.6	140.2
619.8	139.2
620.0	138.8
620.2	138.7
620.4	138.5
620.6	137.7
620.8	135.5
621.0	133.4
621.2	131.9
621.4	131.4
621.6	131.7
621.8	131.3
622.0	130.5
622.2	129.1
622.4	127.0
622.6	125.9
622.8	125.5
623.0	124.8
623.2	124.8
623.4	123.9
623.6	121.9
623.8	120.9
624.0	120.4
624.2	119.7
624.4	119.7
624.6	119.1
624.8	118.9
625.0	117.8
625.2	117.6
625.4	115.2
625.6	113.9
625.8	112.6
626.0	112.5
626.2	112.1
626.4	112.9
626.6	111.7
626.8	111.3
627.0	110.4
627.2	109.7
627.4	108.3
627.6	106.9
627.8	105.5
628.0	105.1
628.2	105.2
628.4	105.2
628.6	104.0
628.8	103.0
629.0	101.9
629.2	101.2
629.4	100.8
629.6	100.3
629.8	99.66
630.0	99.22
630.2	97.68
630.4	96.45
630.6	95.69
630.8	95.91
631.0	96.20
631.2	95.91
631.4	94.53
631.6	93.87
631.8	92.90
632.0	92.84
632.2	91.93
632.4	90.96
632.6	90.04
632.8	89.65
633.0	88.69
633.2	88.28
633.4	87.25
633.6	86.36
633.8	86.05
634.0	86.36
634.2	85.94
634.4	85.57
634.6	85.33
634.8	84.66
635.0	84.04
635.2	83.29
635.4	82.14
635.6	81.28
635.8	81.28
636.0	80.98
636.2	80.95
636.4	80.09
636.6	78.73
636.8	77.41
637.0	76.18
637.2	75.64
637.4	76.11
637.6	76.11
637.8	75.11
638.0	74.65
638.2	73.76
638.4	73.40
638.6	73.40
638.8	73.26
639.0	72.81
639.2	73.09
639.4	72.66
639.6	71.83
639.8	70.51
640.0	69.41
640.2	69.75
640.4	70.16
640.6	70.08
640.8	69.31
641.0	67.54
641.2	66.54
641.4	66.85
641.6	66.63
641.8	66.69
642.0	66.06
642.2	65.08
642.4	64.95
642.6	64.41
642.8	64.01
643.0	63.57
643.2	63.04
643.4	62.73
643.6	61.83
643.8	60.86
644.0	60.54
644.2	60.55
644.4	60.74
644.6	60.90
644.8	59.96
645.0	59.05
645.2	58.36
645.4	58.08
645.6	58.19
645.8	58.22
646.0	57.92
646.2	57.02
646.4	56.17
646.6	54.90
646.8	54.45
647.0	54.33
647.2	54.71
647.4	54.50
647.6	54.57
647.8	54.26
648.0	54.03
648.2	53.66
648.4	53.10
648.6	52.05
648.8	51.63
649.0	51.66
649.2	51.79
649.4	51.73
649.6	51.34
649.8	50.29
650.0	49.72
650.2	49.77
650.4	49.77
650.6	49.81
650.8	49.58
651.0	48.65
651.2	47.95
651.4	47.55
651.6	47.09
651.8	47.15
652.0	46.99
652.2	46.80
652.4	46.72
652.6	46.49
652.8	45.92
653.0	45.65
653.2	45.00
653.4	44.20
653.6	44.09
653.8	44.05
654.0	43.85
654.2	43.88
654.4	43.48
654.6	42.97
654.8	42.68
655.0	42.47
655.2	42.16
655.4	41.65
655.6	41.21
655.8	40.65
656.0	40.27
656.2	40.40
656.4	40.68
656.6	40.28
656.8	40.23
657.0	39.40
657.2	39.11
657.4	38.97
657.6	38.90
657.8	38.08
658.0	38.02
658.2	37.54
658.4	37.48
658.6	37.12
658.8	37.19
659.0	36.77
659.2	36.60
659.4	37.10
659.6	36.58
659.8	36.10
660.0	36.04
660.2	35.53
660.4	35.37
660.6	35.65
660.8	35.30
661.0	35.44
661.2	35.33
661.4	34.73
661.6	34.60
661.8	34.26
662.0	34.23
662.2	34.05
662.4	34.14
662.6	33.79
662.8	33.31
663.0	32.81
663.2	32.45
663.4	32.26
663.6	32.12
663.8	31.51
664.0	30.95
664.2	30.86
664.4	31.00
664.6	31.16
664.8	30.43
665.0	29.57
665.2	29.05
665.4	28.94
665.6	29.25
665.8	29.56
666.0	29.47
666.2	29.17
666.4	28.93
666.6	28.93
666.8	28.94
667.0	28.93
667.2	28.66
667.4	28.05
667.6	27.64
667.8	27.40
668.0	27.35
668.2	27.49
668.4	27.60
668.6	27.58
668.8	27.42
669.0	26.96
669.2	26.71
669.4	26.44
669.6	26.45
669.8	26.43
670.0	26.21
670.2	26.06
670.4	25.66
670.6	25.02
670.8	24.80
671.0	24.54
671.2	24.54
671.4	24.95
671.6	25.04
671.8	24.78
672.0	24.45
672.2	24.02
672.4	24.19
672.6	24.05
672.8	23.70
673.0	23.70
673.2	23.70
673.4	23.45
673.6	23.18
673.8	22.96
674.0	22.66
674.2	22.66
674.4	22.85
674.6	23.01
674.8	22.79
675.0	22.95
675.2	22.63
675.4	22.33
675.6	21.74
675.8	21.24
676.0	21.06
676.2	21.40
676.4	21.69
676.6	22.19
676.8	22.04
677.0	21.39
677.2	21.13
677.4	20.77
677.6	20.25
677.8	20.31
678.0	20.21
678.2	20.37
678.4	20.71
678.6	20.10
678.8	19.77
679.0	19.85
679.2	19.81
679.4	19.71
679.6	19.23
679.8	18.82
680.0	18.72

