Sample:	'20211010A(EM)
File name:	B-CDs 1.FDS
Run date:	'14:44:42, 06/08/2023
Operator:	Administrator
Comment:	'

Instrument
Model:	F-4700 FL Spectrophotometer
Serial number:	2019-001
ROM Version:	5J24010 00

Instrument parameters
Measurement type:	Wavelength scan
Scan mode:	Emission
Data mode:	Fluorescence
EX WL:	350.0 nm
EM  Start WL:	370.0 nm
EM  End WL:	680.0 nm
Scan speed:	1200 nm/min
Delay:	0.0 s
EX Slit:	10.0 nm
EM Slit:	10.0 nm
PMT Voltage:	515 V
Response:	0.002 s
Corrected spectra:	Off
Shutter control:	On

Processing performed
Savitsky-Golay smoothed
Smoothing order:	3
Number of points:	7
Number of times:	1

Peak integration
Integration method:	Rectangular
Sensitivity:	1
Threshold:	1.000

Peaks
No.	Start(nm)	Apex(nm)	End(nm)	Height(Data)	Valley(nm)	Valley(Data)
1	370.0	485.8	486.6	1139	486.6	1130
2	486.6	488.6	490.0	1156	490.0	1150
3	490.0	492.2	492.6	1167	492.6	1155
4	492.6	495.4	496.0	1165	496.0	1151
5	496.0	497.0	498.0	1158	498.0	1139
6	498.0	500.4	501.6	1158	501.6	1124
7	501.6	502.6	652.2	1130	652.2	37.61
8	652.2	652.6	667.6	38.74	667.6	22.67
9	667.6	668.2	669.4	24.89	669.4	21.73
10	669.4	670.2	672.4	22.75	672.4	18.80
11	672.4	673.4	677.4	20.11	677.4	16.80
12	677.4	678.2	680.0	17.99	680.0	15.83

Data points
nm	Data
370.0	1.043
370.2	1.442
370.4	1.603
370.6	1.617
370.8	1.676
371.0	1.454
371.2	1.569
371.4	1.646
371.6	1.736
371.8	1.686
372.0	1.590
372.2	1.385
372.4	1.449
372.6	1.388
372.8	1.350
373.0	1.265
373.2	1.113
373.4	1.247
373.6	1.353
373.8	1.463
374.0	1.671
374.2	1.727
374.4	1.608
374.6	1.513
374.8	1.381
375.0	1.327
375.2	1.599
375.4	1.654
375.6	1.616
375.8	1.566
376.0	1.467
376.2	1.382
376.4	1.570
376.6	1.457
376.8	1.272
377.0	1.181
377.2	1.330
377.4	1.463
377.6	1.756
377.8	1.627
378.0	1.616
378.2	1.408
378.4	1.835
378.6	1.980
378.8	2.121
379.0	2.044
379.2	1.811
379.4	1.225
379.6	1.362
379.8	1.311
380.0	1.589
380.2	1.757
380.4	1.813
380.6	1.628
380.8	1.591
381.0	1.364
381.2	1.356
381.4	1.452
381.6	1.684
381.8	1.819
382.0	1.873
382.2	1.849
382.4	1.792
382.6	1.893
382.8	1.825
383.0	1.681
383.2	1.647
383.4	1.672
383.6	1.420
383.8	1.349
384.0	1.539
384.2	1.667
384.4	2.034
384.6	2.184
384.8	2.022
385.0	2.075
385.2	2.024
385.4	2.078
385.6	2.046
385.8	1.973
386.0	1.963
386.2	1.762
386.4	1.594
386.6	1.494
386.8	1.653
387.0	1.949
387.2	2.229
387.4	2.230
387.6	2.158
387.8	1.979
388.0	1.985
388.2	1.942
388.4	1.863
388.6	1.989
388.8	1.990
389.0	2.263
389.2	2.321
389.4	2.374
389.6	2.418
389.8	2.206
390.0	2.159
390.2	2.234
390.4	2.303
390.6	2.547
390.8	2.762
391.0	2.737
391.2	2.985
391.4	2.950
391.6	3.009
391.8	2.686
392.0	2.359
392.2	2.499
392.4	2.674
392.6	2.930
392.8	3.426
393.0	3.316
393.2	3.284
393.4	3.441
393.6	3.124
393.8	3.116
394.0	3.362
394.2	3.279
394.4	3.473
394.6	3.540
394.8	3.444
395.0	3.393
395.2	3.456
395.4	3.354
395.6	3.655
395.8	4.025
396.0	4.107
396.2	4.205
396.4	3.924
396.6	3.845
396.8	3.925
397.0	4.295
397.2	4.399
397.4	4.677
397.6	4.712
397.8	5.003
398.0	5.011
398.2	4.876
398.4	4.718
398.6	4.534
398.8	4.647
399.0	4.969
399.2	5.581
399.4	5.841
399.6	5.734
399.8	5.646
400.0	5.162
400.2	5.134
400.4	5.466
400.6	5.821
400.8	6.164
401.0	6.437
401.2	6.586
401.4	6.752
401.6	7.089
401.8	7.236
402.0	7.643
402.2	7.815
402.4	8.305
402.6	8.261
402.8	8.496
403.0	8.544
403.2	8.954
403.4	9.266
403.6	9.386
403.8	9.658
404.0	9.273
404.2	9.331
404.4	9.964
404.6	10.75
404.8	11.21
405.0	11.89
405.2	11.99
405.4	12.14
405.6	12.40
405.8	12.94
406.0	13.35
406.2	13.32
406.4	13.76
406.6	13.86
406.8	14.42
407.0	15.25
407.2	15.99
407.4	16.48
407.6	17.39
407.8	17.78
408.0	18.26
408.2	18.69
408.4	18.87
408.6	19.39
408.8	20.20
409.0	21.13
409.2	21.74
409.4	22.18
409.6	23.24
409.8	24.61
410.0	25.71
410.2	26.92
410.4	28.14
410.6	28.61
410.8	29.47
411.0	30.17
411.2	30.59
411.4	30.48
411.6	31.15
411.8	32.70
412.0	34.56
412.2	36.84
412.4	38.84
412.6	39.10
412.8	39.25
413.0	39.83
413.2	41.02
413.4	42.59
413.6	44.89
413.8	46.35
414.0	48.94
414.2	50.49
414.4	51.68
414.6	52.08
414.8	52.28
415.0	52.96
415.2	56.38
415.4	59.29
415.6	62.17
415.8	64.05
416.0	64.84
416.2	65.71
416.4	66.97
416.6	69.13
416.8	71.80
417.0	74.32
417.2	76.56
417.4	78.20
417.6	79.55
417.8	81.71
418.0	83.64
418.2	86.23
418.4	90.68
418.6	93.85
418.8	96.41
419.0	98.63
419.2	99.84
419.4	101.9
419.6	106.1
419.8	109.4
420.0	113.1
420.2	117.4
420.4	120.9
420.6	122.4
420.8	123.9
421.0	127.3
421.2	132.2
421.4	137.6
421.6	140.9
421.8	143.5
422.0	145.1
422.2	146.2
422.4	149.3
422.6	151.2
422.8	153.2
423.0	158.6
423.2	162.6
423.4	165.8
423.6	169.5
423.8	172.7
424.0	175.9
424.2	178.4
424.4	182.9
424.6	186.0
424.8	187.4
425.0	191.8
425.2	197.2
425.4	199.7
425.6	204.7
425.8	207.8
426.0	210.3
426.2	213.3
426.4	220.4
426.6	224.4
426.8	228.3
427.0	231.4
427.2	234.5
427.4	236.2
427.6	241.5
427.8	245.7
428.0	249.3
428.2	254.5
428.4	257.7
428.6	261.7
428.8	266.5
429.0	269.3
429.2	274.5
429.4	281.6
429.6	286.7
429.8	290.2
430.0	294.4
430.2	296.4
430.4	300.8
430.6	306.3
430.8	311.0
431.0	312.7
431.2	316.4
431.4	316.6
431.6	320.5
431.8	326.0
432.0	334.6
432.2	338.9
432.4	342.2
432.6	343.2
432.8	346.6
433.0	348.6
433.2	354.9
433.4	359.7
433.6	363.5
433.8	365.8
434.0	367.1
434.2	369.4
434.4	372.4
434.6	379.7
434.8	383.5
435.0	385.6
435.2	385.3
435.4	388.7
435.6	391.4
435.8	399.8
436.0	404.5
436.2	409.9
436.4	411.5
436.6	415.4
436.8	417.7
437.0	418.4
437.2	419.5
437.4	425.4
437.6	427.7
437.8	435.2
438.0	439.3
438.2	442.0
438.4	445.6
438.6	451.7
438.8	450.4
439.0	451.8
439.2	452.2
439.4	456.9
439.6	459.3
439.8	464.0
440.0	466.0
440.2	469.2
440.4	473.4
440.6	477.2
440.8	483.2
441.0	485.9
441.2	489.5
441.4	490.5
441.6	492.3
441.8	495.3
442.0	500.5
442.2	501.4
442.4	504.8
442.6	504.1
442.8	508.8
443.0	515.6
443.2	521.8
443.4	525.9
443.6	526.0
443.8	523.0
444.0	521.4
444.2	519.4
444.4	522.0
444.6	528.1
444.8	534.1
445.0	539.8
445.2	543.8
445.4	549.1
445.6	552.2
445.8	554.9
446.0	558.2
446.2	557.8
446.4	557.2
446.6	561.6
446.8	565.3
447.0	568.3
447.2	570.0
447.4	572.5
447.6	575.0
447.8	582.3
448.0	587.2
448.2	588.3
448.4	587.2
448.6	587.2
448.8	588.8
449.0	594.0
449.2	593.6
449.4	595.4
449.6	602.4
449.8	608.5
450.0	609.3
450.2	612.7
450.4	611.5
450.6	614.3
450.8	621.5
451.0	628.2
451.2	626.5
451.4	633.2
451.6	634.3
451.8	636.1
452.0	639.4
452.2	641.8
452.4	644.4
452.6	651.2
452.8	650.7
453.0	653.1
453.2	656.3
453.4	659.1
453.6	666.0
453.8	671.5
454.0	679.0
454.2	686.4
454.4	685.9
454.6	680.8
454.8	680.7
455.0	685.3
455.2	693.3
455.4	699.3
455.6	696.3
455.8	690.9
456.0	692.4
456.2	698.3
456.4	703.9
456.6	714.6
456.8	718.9
457.0	724.9
457.2	728.6
457.4	729.9
457.6	728.2
457.8	731.1
458.0	734.2
458.2	740.0
458.4	744.0
458.6	744.4
458.8	743.7
459.0	747.9
459.2	758.1
459.4	766.9
459.6	771.8
459.8	772.6
460.0	774.7
460.2	772.6
460.4	776.5
460.6	780.5
460.8	785.4
461.0	793.5
461.2	801.4
461.4	802.4
461.6	804.1
461.8	805.0
462.0	808.2
462.2	812.7
462.4	819.9
462.6	826.6
462.8	831.7
463.0	833.6
463.2	834.9
463.4	834.9
463.6	839.7
463.8	843.1
464.0	847.5
464.2	850.8
464.4	852.8
464.6	854.5
464.8	858.4
465.0	861.5
465.2	867.9
465.4	869.5
465.6	867.1
465.8	866.7
466.0	869.2
466.2	870.7
466.4	878.7
466.6	882.3
466.8	888.1
467.0	894.6
467.2	900.8
467.4	900.0
467.6	906.1
467.8	908.2
468.0	912.1
468.2	912.1
468.4	914.0
468.6	916.4
468.8	923.8
469.0	932.5
469.2	937.4
469.4	939.7
469.6	941.0
469.8	941.1
470.0	943.4
470.2	949.9
470.4	952.2
470.6	954.7
470.8	959.8
471.0	959.5
471.2	965.5
471.4	968.5
471.6	970.5
471.8	974.9
472.0	979.8
472.2	981.4
472.4	986.2
472.6	984.0
472.8	983.6
473.0	991.4
473.2	993.7
473.4	1004
473.6	1010
473.8	1009
474.0	1006
474.2	1006
474.4	1004
474.6	1010
474.8	1012
475.0	1016
475.2	1019
475.4	1024
475.6	1026
475.8	1030
476.0	1028
476.2	1031
476.4	1035
476.6	1040
476.8	1042
477.0	1044
477.2	1043
477.4	1044
477.6	1050
477.8	1056
478.0	1058
478.2	1058
478.4	1060
478.6	1062
478.8	1068
479.0	1069
479.2	1071
479.4	1070
479.6	1073
479.8	1078
480.0	1082
480.2	1080
480.4	1078
480.6	1077
480.8	1081
481.0	1091
481.2	1093
481.4	1095
481.6	1098
481.8	1102
482.0	1107
482.2	1113
482.4	1110
482.6	1109
482.8	1107
483.0	1109
483.2	1114
483.4	1117
483.6	1116
483.8	1118
484.0	1114
484.2	1115
484.4	1120
484.6	1126
484.8	1123
485.0	1126
485.2	1128
485.4	1131
485.6	1136
485.8	1139
486.0	1136
486.2	1132
486.4	1131
486.6	1130
486.8	1132
487.0	1134
487.2	1138
487.4	1143
487.6	1144
487.8	1146
488.0	1147
488.2	1148
488.4	1150
488.6	1156
488.8	1153
489.0	1152
489.2	1153
489.4	1153
489.6	1152
489.8	1153
490.0	1150
490.2	1152
490.4	1154
490.6	1152
490.8	1153
491.0	1160
491.2	1161
491.4	1160
491.6	1160
491.8	1160
492.0	1163
492.2	1167
492.4	1161
492.6	1155
492.8	1157
493.0	1159
493.2	1157
493.4	1161
493.6	1161
493.8	1160
494.0	1164
494.2	1160
494.4	1159
494.6	1159
494.8	1159
495.0	1160
495.2	1165
495.4	1165
495.6	1163
495.8	1156
496.0	1151
496.2	1151
496.4	1153
496.6	1153
496.8	1154
497.0	1158
497.2	1157
497.4	1155
497.6	1147
497.8	1142
498.0	1139
498.2	1146
498.4	1149
498.6	1152
498.8	1151
499.0	1152
499.2	1151
499.4	1153
499.6	1153
499.8	1155
500.0	1155
500.2	1155
500.4	1158
500.6	1155
500.8	1151
501.0	1142
501.2	1131
501.4	1127
501.6	1124
501.8	1125
502.0	1129
502.2	1129
502.4	1130
502.6	1130
502.8	1126
503.0	1129
503.2	1128
503.4	1127
503.6	1126
503.8	1120
504.0	1117
504.2	1116
504.4	1109
504.6	1106
504.8	1106
505.0	1106
505.2	1109
505.4	1104
505.6	1101
505.8	1099
506.0	1095
506.2	1095
506.4	1101
506.6	1098
506.8	1099
507.0	1097
507.2	1089
507.4	1085
507.6	1088
507.8	1086
508.0	1082
508.2	1082
508.4	1080
508.6	1073
508.8	1079
509.0	1078
509.2	1073
509.4	1073
509.6	1071
509.8	1064
510.0	1065
510.2	1064
510.4	1056
510.6	1051
510.8	1051
511.0	1050
511.2	1050
511.4	1050
511.6	1048
511.8	1046
512.0	1044
512.2	1045
512.4	1047
512.6	1041
512.8	1040
513.0	1037
513.2	1029
513.4	1022
513.6	1020
513.8	1016
514.0	1016
514.2	1014
514.4	1009
514.6	1007
514.8	1008
515.0	1007
515.2	1006
515.4	999.6
515.6	995.1
515.8	995.8
516.0	997.6
516.2	999.7
516.4	997.2
516.6	992.8
516.8	986.7
517.0	987.5
517.2	982.8
517.4	979.0
517.6	975.4
517.8	973.5
518.0	968.3
518.2	972.3
518.4	969.0
518.6	966.8
518.8	967.6
519.0	970.4
519.2	968.3
519.4	964.3
519.6	955.8
519.8	948.7
520.0	948.7
520.2	950.4
520.4	951.8
520.6	947.3
520.8	941.2
521.0	934.5
521.2	932.9
521.4	929.5
521.6	927.5
521.8	924.8
522.0	921.4
522.2	917.1
522.4	914.1
522.6	914.8
522.8	915.8
523.0	916.4
523.2	914.8
523.4	911.5
523.6	909.9
523.8	904.9
524.0	900.8
524.2	897.7
524.4	893.3
524.6	892.6
524.8	893.1
525.0	893.0
525.2	893.2
525.4	892.1
525.6	891.3
525.8	887.6
526.0	881.7
526.2	879.4
526.4	873.9
526.6	867.7
526.8	867.6
527.0	862.9
527.2	860.9
527.4	860.2
527.6	856.2
527.8	851.5
528.0	850.9
528.2	847.8
528.4	846.1
528.6	849.8
528.8	849.0
529.0	843.9
529.2	843.2
529.4	836.3
529.6	830.0
529.8	828.7
530.0	825.1
530.2	820.9
530.4	821.9
530.6	820.5
530.8	821.8
531.0	822.7
531.2	819.0
531.4	817.1
531.6	815.9
531.8	813.9
532.0	807.9
532.2	798.8
532.4	790.8
532.6	790.9
532.8	791.0
533.0	792.9
533.2	794.5
533.4	792.5
533.6	791.7
533.8	789.4
534.0	784.6
534.2	778.5
534.4	775.5
534.6	775.5
534.8	773.8
535.0	770.4
535.2	768.5
535.4	761.9
535.6	753.6
535.8	751.6
536.0	747.8
536.2	749.9
536.4	751.6
536.6	752.6
536.8	751.2
537.0	747.0
537.2	741.3
537.4	738.3
537.6	736.6
537.8	737.8
538.0	736.2
538.2	734.3
538.4	731.9
538.6	728.2
538.8	726.0
539.0	724.3
539.2	720.1
539.4	715.9
539.6	712.5
539.8	710.7
540.0	707.6
540.2	702.8
540.4	699.0
540.6	695.7
540.8	696.6
541.0	697.1
541.2	694.9
541.4	685.0
541.6	680.8
541.8	679.0
542.0	681.9
542.2	682.2
542.4	684.2
542.6	678.8
542.8	679.0
543.0	673.0
543.2	670.0
543.4	667.0
543.6	666.5
543.8	664.0
544.0	662.1
544.2	658.4
544.4	653.3
544.6	648.7
544.8	647.2
545.0	645.2
545.2	648.1
545.4	652.3
545.6	648.1
545.8	642.6
546.0	637.0
546.2	632.8
546.4	638.5
546.6	639.0
546.8	634.3
547.0	627.5
547.2	619.9
547.4	615.6
547.6	615.9
547.8	614.6
548.0	614.5
548.2	612.7
548.4	613.5
548.6	611.7
548.8	608.7
549.0	605.1
549.2	602.0
549.4	598.1
549.6	598.1
549.8	593.9
550.0	589.5
550.2	585.4
550.4	585.6
550.6	587.0
550.8	587.2
551.0	583.9
551.2	584.1
551.4	582.5
551.6	581.5
551.8	578.6
552.0	572.4
552.2	568.8
552.4	567.9
552.6	565.4
552.8	561.0
553.0	557.6
553.2	554.2
553.4	551.2
553.6	551.2
553.8	550.4
554.0	546.9
554.2	545.5
554.4	542.3
554.6	537.4
554.8	537.8
555.0	538.8
555.2	536.2
555.4	532.8
555.6	531.3
555.8	526.3
556.0	522.7
556.2	521.1
556.4	518.1
556.6	516.7
556.8	518.6
557.0	513.8
557.2	510.6
557.4	506.8
557.6	504.5
557.8	505.0
558.0	505.1
558.2	501.8
558.4	502.4
558.6	501.7
558.8	497.9
559.0	493.5
559.2	489.4
559.4	487.8
559.6	489.7
559.8	490.2
560.0	491.1
560.2	488.6
560.4	485.8
560.6	483.4
560.8	479.1
561.0	473.2
561.2	472.7
561.4	465.3
561.6	461.6
561.8	459.8
562.0	459.8
562.2	462.0
562.4	464.3
562.6	460.3
562.8	455.6
563.0	450.5
563.2	446.6
563.4	445.8
563.6	448.2
563.8	448.9
564.0	447.0
564.2	443.2
564.4	435.8
564.6	429.8
564.8	428.0
565.0	427.9
565.2	430.4
565.4	428.3
565.6	425.8
565.8	421.6
566.0	418.6
566.2	417.0
566.4	419.2
566.6	419.7
566.8	421.2
567.0	417.5
567.2	412.1
567.4	402.8
567.6	397.9
567.8	397.9
568.0	400.3
568.2	401.6
568.4	402.2
568.6	399.5
568.8	396.2
569.0	393.4
569.2	390.7
569.4	388.5
569.6	388.4
569.8	387.6
570.0	386.2
570.2	386.0
570.4	387.3
570.6	386.2
570.8	385.7
571.0	383.0
571.2	378.6
571.4	373.6
571.6	372.6
571.8	368.2
572.0	368.2
572.2	369.8
572.4	371.3
572.6	368.7
572.8	366.4
573.0	361.3
573.2	360.7
573.4	360.6
573.6	361.9
573.8	360.3
574.0	356.4
574.2	353.3
574.4	352.2
574.6	350.5
574.8	348.2
575.0	348.5
575.2	348.5
575.4	347.6
575.6	347.1
575.8	343.4
576.0	337.4
576.2	337.3
576.4	338.2
576.6	334.6
576.8	331.7
577.0	328.2
577.2	324.9
577.4	324.1
577.6	324.6
577.8	322.0
578.0	318.5
578.2	316.9
578.4	318.5
578.6	320.5
578.8	323.2
579.0	320.9
579.2	317.9
579.4	313.7
579.6	314.0
579.8	316.8
580.0	314.4
580.2	308.3
580.4	307.0
580.6	304.4
580.8	303.2
581.0	305.6
581.2	301.6
581.4	298.3
581.6	299.6
581.8	298.9
582.0	296.4
582.2	298.0
582.4	295.1
582.6	292.5
582.8	291.7
583.0	287.9
583.2	284.4
583.4	282.3
583.6	279.8
583.8	280.3
584.0	283.2
584.2	284.7
584.4	282.8
584.6	281.1
584.8	277.8
585.0	274.7
585.2	275.1
585.4	274.5
585.6	269.9
585.8	270.0
586.0	266.1
586.2	264.1
586.4	265.3
586.6	267.0
586.8	264.6
587.0	264.7
587.2	260.4
587.4	259.5
587.6	260.1
587.8	260.6
588.0	257.6
588.2	254.6
588.4	249.6
588.6	250.2
588.8	251.2
589.0	251.6
589.2	249.8
589.4	246.5
589.6	243.4
589.8	243.3
590.0	241.7
590.2	241.1
590.4	238.6
590.6	236.5
590.8	236.5
591.0	236.0
591.2	235.3
591.4	234.3
591.6	231.9
591.8	232.9
592.0	233.6
592.2	230.7
592.4	229.1
592.6	226.0
592.8	224.2
593.0	224.8
593.2	225.3
593.4	222.8
593.6	221.3
593.8	217.2
594.0	215.8
594.2	215.0
594.4	215.6
594.6	215.9
594.8	216.1
595.0	212.4
595.2	210.3
595.4	209.9
595.6	208.7
595.8	208.3
596.0	208.5
596.2	206.7
596.4	205.1
596.6	205.9
596.8	206.9
597.0	205.4
597.2	204.3
597.4	200.8
597.6	197.6
597.8	196.9
598.0	194.7
598.2	193.0
598.4	192.7
598.6	191.8
598.8	193.7
599.0	195.4
599.2	195.4
599.4	192.5
599.6	188.4
599.8	186.3
600.0	187.2
600.2	187.5
600.4	188.3
600.6	187.1
600.8	186.1
601.0	185.4
601.2	184.7
601.4	182.4
601.6	179.3
601.8	179.6
602.0	180.6
602.2	178.5
602.4	176.2
602.6	172.1
602.8	169.9
603.0	170.5
603.2	171.3
603.4	172.7
603.6	174.4
603.8	170.3
604.0	168.4
604.2	165.1
604.4	162.2
604.6	163.3
604.8	164.3
605.0	163.6
605.2	164.0
605.4	164.4
605.6	164.6
605.8	163.9
606.0	162.3
606.2	161.2
606.4	159.4
606.6	158.9
606.8	156.3
607.0	154.1
607.2	153.2
607.4	151.7
607.6	152.1
607.8	152.3
608.0	150.7
608.2	150.3
608.4	149.6
608.6	149.0
608.8	147.1
609.0	147.2
609.2	146.2
609.4	145.8
609.6	145.5
609.8	146.5
610.0	143.8
610.2	144.4
610.4	142.3
610.6	141.7
610.8	140.9
611.0	141.2
611.2	141.0
611.4	139.6
611.6	138.6
611.8	136.2
612.0	135.0
612.2	134.5
612.4	134.4
612.6	133.2
612.8	132.7
613.0	131.1
613.2	131.4
613.4	132.0
613.6	132.2
613.8	129.7
614.0	126.7
614.2	125.4
614.4	124.1
614.6	124.6
614.8	125.1
615.0	124.0
615.2	122.8
615.4	122.7
615.6	121.3
615.8	120.9
616.0	120.8
616.2	121.3
616.4	120.4
616.6	119.0
616.8	117.5
617.0	117.9
617.2	117.9
617.4	118.8
617.6	117.5
617.8	114.3
618.0	112.7
618.2	111.4
618.4	109.9
618.6	110.3
618.8	110.4
619.0	110.9
619.2	112.7
619.4	112.6
619.6	110.8
619.8	109.0
620.0	106.9
620.2	106.0
620.4	106.0
620.6	106.1
620.8	105.6
621.0	104.6
621.2	103.3
621.4	103.1
621.6	102.5
621.8	101.6
622.0	101.3
622.2	99.56
622.4	98.74
622.6	98.71
622.8	99.24
623.0	99.17
623.2	100.1
623.4	98.83
623.6	98.78
623.8	96.79
624.0	95.09
624.2	94.34
624.4	93.73
624.6	92.99
624.8	92.78
625.0	91.12
625.2	90.73
625.4	90.87
625.6	91.06
625.8	91.26
626.0	89.76
626.2	88.49
626.4	87.93
626.6	87.81
626.8	88.70
627.0	88.45
627.2	87.04
627.4	85.76
627.6	84.47
627.8	84.91
628.0	84.73
628.2	83.65
628.4	83.25
628.6	82.98
628.8	82.66
629.0	83.38
629.2	82.51
629.4	80.56
629.6	79.72
629.8	80.05
630.0	78.92
630.2	78.39
630.4	78.15
630.6	77.69
630.8	77.33
631.0	77.75
631.2	75.41
631.4	74.90
631.6	74.71
631.8	75.67
632.0	75.52
632.2	74.66
632.4	72.66
632.6	72.06
632.8	70.66
633.0	70.10
633.2	69.46
633.4	69.11
633.6	68.12
633.8	68.78
634.0	69.67
634.2	69.96
634.4	69.43
634.6	69.00
634.8	67.25
635.0	66.93
635.2	66.84
635.4	66.59
635.6	65.97
635.8	66.09
636.0	65.71
636.2	65.18
636.4	64.16
636.6	64.89
636.8	64.93
637.0	65.24
637.2	64.31
637.4	63.25
637.6	61.43
637.8	62.75
638.0	62.29
638.2	61.72
638.4	59.96
638.6	59.52
638.8	58.67
639.0	59.89
639.2	60.57
639.4	60.53
639.6	59.40
639.8	59.08
640.0	58.94
640.2	57.37
640.4	57.05
640.6	56.32
640.8	56.13
641.0	55.76
641.2	55.51
641.4	53.61
641.6	53.58
641.8	53.73
642.0	54.70
642.2	53.47
642.4	52.63
642.6	52.66
642.8	52.81
643.0	53.85
643.2	54.43
643.4	53.22
643.6	51.44
643.8	50.79
644.0	50.56
644.2	50.97
644.4	50.55
644.6	50.47
644.8	49.15
645.0	49.00
645.2	48.62
645.4	47.76
645.6	47.38
645.8	47.37
646.0	46.21
646.2	46.91
646.4	46.10
646.6	45.69
646.8	46.24
647.0	46.19
647.2	46.04
647.4	47.14
647.6	46.99
647.8	45.61
648.0	44.96
648.2	44.95
648.4	45.11
648.6	44.41
648.8	44.30
649.0	43.02
649.2	42.94
649.4	43.02
649.6	42.84
649.8	41.99
650.0	41.79
650.2	41.52
650.4	41.70
650.6	40.44
650.8	40.33
651.0	40.76
651.2	41.08
651.4	41.39
651.6	40.68
651.8	38.72
652.0	37.93
652.2	37.61
652.4	37.75
652.6	38.74
652.8	38.35
653.0	38.32
653.2	38.34
653.4	37.91
653.6	37.79
653.8	38.39
654.0	38.03
654.2	37.88
654.4	36.96
654.6	35.76
654.8	35.37
655.0	35.73
655.2	36.72
655.4	36.94
655.6	35.85
655.8	34.93
656.0	33.97
656.2	34.05
656.4	34.78
656.6	34.76
656.8	34.33
657.0	34.18
657.2	33.86
657.4	33.98
657.6	33.80
657.8	33.10
658.0	32.21
658.2	31.15
658.4	30.85
658.6	30.97
658.8	31.18
659.0	31.02
659.2	31.26
659.4	31.00
659.6	30.53
659.8	30.01
660.0	29.30
660.2	29.07
660.4	29.84
660.6	30.23
660.8	29.42
661.0	28.78
661.2	28.10
661.4	28.18
661.6	28.74
661.8	29.07
662.0	28.47
662.2	29.07
662.4	29.00
662.6	28.80
662.8	29.03
663.0	28.67
663.2	27.64
663.4	27.77
663.6	26.74
663.8	26.37
664.0	26.32
664.2	26.79
664.4	26.52
664.6	26.98
664.8	27.09
665.0	27.28
665.2	27.18
665.4	27.10
665.6	25.99
665.8	26.15
666.0	26.40
666.2	25.72
666.4	24.96
666.6	24.24
666.8	23.43
667.0	23.94
667.2	23.79
667.4	23.32
667.6	22.67
667.8	23.38
668.0	24.19
668.2	24.89
668.4	24.17
668.6	23.28
668.8	22.31
669.0	22.06
669.2	22.06
669.4	21.73
669.6	21.99
669.8	22.14
670.0	22.66
670.2	22.75
670.4	22.27
670.6	21.23
670.8	21.92
671.0	22.16
671.2	22.08
671.4	21.72
671.6	20.84
671.8	20.36
672.0	19.99
672.2	19.66
672.4	18.80
672.6	19.28
672.8	19.43
673.0	19.83
673.2	20.00
673.4	20.11
673.6	19.49
673.8	19.93
674.0	19.77
674.2	19.28
674.4	18.89
674.6	19.27
674.8	18.78
675.0	18.54
675.2	18.49
675.4	18.44
675.6	18.69
675.8	19.54
676.0	18.92
676.2	18.25
676.4	18.02
676.6	17.88
676.8	17.72
677.0	17.90
677.2	17.35
677.4	16.80
677.6	16.87
677.8	17.15
678.0	17.09
678.2	17.99
678.4	17.73
678.6	16.82
678.8	16.16
679.0	16.04
679.2	16.07
679.4	16.72
679.6	16.72
679.8	16.42
680.0	15.83

