Sample:	'20211010A(EM)
File name:	g-cds 1;15 600v.FDS
Run date:	'15:06:56, 03/22/2023
Operator:	Administrator
Comment:	'

Instrument
Model:	F-4700 FL Spectrophotometer
Serial number:	2019-001
ROM Version:	5J24010 00

Instrument parameters
Measurement type:	Wavelength scan
Scan mode:	Emission
Data mode:	Fluorescence
EX WL:	350.0 nm
EM  Start WL:	370.0 nm
EM  End WL:	800.0 nm
Scan speed:	1200 nm/min
Delay:	0.0 s
EX Slit:	10.0 nm
EM Slit:	10.0 nm
PMT Voltage:	600 V
Response:	0.002 s
Corrected spectra:	Off
Shutter control:	On

Processing performed
Savitsky-Golay smoothed
Smoothing order:	3
Number of points:	7
Number of times:	1

Peak integration
Integration method:	Rectangular
Sensitivity:	1
Threshold:	1.000

Peaks
No.	Start(nm)	Apex(nm)	End(nm)	Height(Data)	Valley(nm)	Valley(Data)
1	370.0	371.8	373.2	4.558	373.2	3.515
2	373.2	379.0	379.6	5.356	379.6	3.894
3	379.6	392.0	392.8	7.319	392.8	5.863
4	392.8	396.2	398.0	7.506	398.0	6.437
5	398.0	400.0	400.8	9.235	400.8	7.644
6	400.8	404.4	405.4	11.79	405.4	10.43
7	405.4	488.0	672.6	5872	672.6	70.37
8	672.6	674.0	685.0	72.40	685.0	51.80
9	685.0	685.4	687.0	53.70	687.0	50.34
10	687.0	687.6	689.2	53.70	689.2	47.86
11	689.2	690.2	692.6	50.90	692.6	45.14
12	692.6	693.6	695.4	46.53	695.4	41.19
13	695.4	695.8	698.6	43.14	698.6	38.59
14	698.6	699.2	702.0	39.95	702.0	33.40
15	702.0	702.8	705.0	37.21	705.0	33.54
16	705.0	706.2	708.6	36.70	708.6	31.55
17	708.6	709.4	710.4	35.19	710.4	32.00
18	710.4	711.8	717.0	34.50	717.0	26.36
19	717.0	717.4	720.8	28.29	720.8	24.00
20	720.8	721.4	723.8	27.07	723.8	22.06
21	723.8	724.2	725.6	23.72	725.6	22.20
22	725.6	726.4	729.6	24.37	729.6	20.22
23	729.6	730.6	731.4	21.23	731.4	19.03
24	731.4	732.4	733.4	21.51	733.4	18.99
25	733.4	734.0	741.0	20.66	741.0	15.89
26	741.0	741.8	744.6	17.41	744.6	13.99
27	744.6	745.0	746.8	15.71	746.8	13.64
28	746.8	747.2	749.0	14.78	749.0	13.25
29	749.0	750.0	751.2	15.13	751.2	12.55
30	751.2	752.8	754.6	14.54	754.6	12.48
31	754.6	756.0	757.6	13.73	757.6	12.13
32	757.6	760.0	772.0	14.67	772.0	8.751
33	772.0	772.8	777.2	10.49	777.2	7.630
34	777.2	779.4	780.6	8.814	780.6	7.182
35	780.6	783.0	784.2	8.736	784.2	7.050
36	784.2	790.4	792.2	8.917	792.2	7.631
37	792.2	794.4	795.2	8.967	795.2	7.533
38	795.2	796.2	798.2	8.992	798.2	7.835

Data points
nm	Data
370.0	3.625
370.2	3.414
370.4	3.536
370.6	3.782
370.8	3.859
371.0	3.652
371.2	3.516
371.4	3.817
371.6	4.382
371.8	4.558
372.0	4.421
372.2	4.407
372.4	4.019
372.6	4.037
372.8	3.806
373.0	3.639
373.2	3.515
373.4	3.705
373.6	3.956
373.8	4.040
374.0	4.163
374.2	4.019
374.4	4.027
374.6	3.891
374.8	3.972
375.0	3.762
375.2	3.742
375.4	3.658
375.6	3.977
375.8	4.217
376.0	4.787
376.2	4.946
376.4	4.653
376.6	4.309
376.8	3.992
377.0	4.169
377.2	4.700
377.4	4.982
377.6	5.050
377.8	5.055
378.0	4.622
378.2	4.546
378.4	4.431
378.6	4.687
378.8	4.960
379.0	5.356
379.2	5.061
379.4	4.565
379.6	3.894
379.8	4.052
380.0	4.143
380.2	4.535
380.4	4.593
380.6	4.745
380.8	4.741
381.0	4.892
381.2	4.848
381.4	4.178
381.6	3.999
381.8	4.262
382.0	4.854
382.2	5.388
382.4	5.586
382.6	5.385
382.8	5.582
383.0	5.771
383.2	5.823
383.4	5.554
383.6	5.150
383.8	5.111
384.0	5.311
384.2	5.525
384.4	5.329
384.6	5.335
384.8	5.296
385.0	5.313
385.2	5.330
385.4	5.225
385.6	4.959
385.8	5.090
386.0	4.987
386.2	5.041
386.4	5.127
386.6	5.049
386.8	5.020
387.0	5.164
387.2	5.287
387.4	5.493
387.6	5.562
387.8	5.403
388.0	5.140
388.2	4.993
388.4	4.909
388.6	5.068
388.8	5.265
389.0	5.286
389.2	5.508
389.4	5.737
389.6	5.749
389.8	5.784
390.0	5.912
390.2	5.863
390.4	6.195
390.6	6.247
390.8	6.111
391.0	5.921
391.2	5.661
391.4	5.673
391.6	6.230
391.8	6.891
392.0	7.319
392.2	7.257
392.4	6.506
392.6	5.942
392.8	5.863
393.0	6.086
393.2	6.182
393.4	6.316
393.6	6.410
393.8	6.774
394.0	6.893
394.2	7.113
394.4	6.850
394.6	6.718
394.8	6.688
395.0	6.805
395.2	6.883
395.4	6.876
395.6	6.899
395.8	7.088
396.0	7.272
396.2	7.506
396.4	7.350
396.6	7.054
396.8	6.669
397.0	6.842
397.2	7.144
397.4	7.057
397.6	6.729
397.8	6.790
398.0	6.437
398.2	6.767
398.4	7.830
398.6	7.995
398.8	7.970
399.0	7.917
399.2	7.586
399.4	7.685
399.6	8.646
399.8	8.816
400.0	9.235
400.2	8.701
400.4	7.747
400.6	7.669
400.8	7.644
401.0	7.984
401.2	9.035
401.4	9.027
401.6	9.320
401.8	9.351
402.0	9.248
402.2	9.340
402.4	9.228
402.6	8.877
402.8	9.151
403.0	9.513
403.2	10.35
403.4	10.03
403.6	9.882
403.8	9.850
404.0	10.19
404.2	11.11
404.4	11.79
404.6	11.40
404.8	11.61
405.0	11.53
405.2	10.68
405.4	10.43
405.6	10.53
405.8	10.67
406.0	12.03
406.2	12.61
406.4	12.13
406.6	12.41
406.8	12.66
407.0	12.53
407.2	13.67
407.4	13.79
407.6	13.57
407.8	14.00
408.0	14.13
408.2	13.79
408.4	14.52
408.6	15.02
408.8	16.16
409.0	17.12
409.2	17.02
409.4	16.21
409.6	15.99
409.8	16.73
410.0	18.04
410.2	19.11
410.4	20.10
410.6	20.40
410.8	20.51
411.0	19.64
411.2	19.11
411.4	19.66
411.6	21.21
411.8	22.01
412.0	22.45
412.2	21.52
412.4	21.19
412.6	21.89
412.8	22.90
413.0	22.88
413.2	23.17
413.4	23.12
413.6	24.03
413.8	25.59
414.0	27.18
414.2	28.38
414.4	29.22
414.6	28.89
414.8	29.25
415.0	29.35
415.2	30.01
415.4	31.17
415.6	32.54
415.8	33.10
416.0	33.14
416.2	34.49
416.4	35.82
416.6	37.70
416.8	39.37
417.0	39.62
417.2	39.78
417.4	40.94
417.6	42.17
417.8	43.44
418.0	44.85
418.2	45.53
418.4	46.92
418.6	47.90
418.8	49.94
419.0	50.92
419.2	53.07
419.4	54.82
419.6	57.42
419.8	60.83
420.0	63.04
420.2	63.44
420.4	64.42
420.6	64.75
420.8	65.18
421.0	68.43
421.2	71.56
421.4	75.39
421.6	80.16
421.8	82.43
422.0	83.68
422.2	85.94
422.4	87.86
422.6	89.83
422.8	92.42
423.0	93.53
423.2	97.30
423.4	101.6
423.6	106.1
423.8	108.8
424.0	113.7
424.2	117.4
424.4	120.9
424.6	123.2
424.8	125.2
425.0	127.5
425.2	133.8
425.4	138.3
425.6	143.2
425.8	147.9
426.0	150.0
426.2	154.3
426.4	160.6
426.6	164.8
426.8	172.2
427.0	178.4
427.2	181.2
427.4	187.7
427.6	196.0
427.8	202.4
428.0	209.9
428.2	215.5
428.4	221.1
428.6	229.3
428.8	236.2
429.0	242.6
429.2	251.8
429.4	261.2
429.6	269.7
429.8	278.2
430.0	285.3
430.2	295.3
430.4	306.6
430.6	315.9
430.8	323.8
431.0	329.6
431.2	338.3
431.4	351.2
431.6	363.9
431.8	375.6
432.0	387.4
432.2	393.6
432.4	402.8
432.6	414.6
432.8	424.8
433.0	436.6
433.2	447.4
433.4	461.3
433.6	470.5
433.8	482.1
434.0	493.9
434.2	513.4
434.4	534.5
434.6	554.2
434.8	568.2
435.0	579.6
435.2	591.2
435.4	609.2
435.6	626.6
435.8	641.1
436.0	659.3
436.2	676.1
436.4	689.9
436.6	705.1
436.8	720.8
437.0	736.1
437.2	753.4
437.4	774.4
437.6	790.5
437.8	808.7
438.0	827.8
438.2	851.4
438.4	874.8
438.6	897.6
438.8	919.1
439.0	939.5
439.2	959.2
439.4	983.1
439.6	1002
439.8	1020
440.0	1042
440.2	1064
440.4	1087
440.6	1118
440.8	1141
441.0	1170
441.2	1195
441.4	1216
441.6	1230
441.8	1259
442.0	1280
442.2	1304
442.4	1331
442.6	1351
442.8	1369
443.0	1398
443.2	1427
443.4	1449
443.6	1480
443.8	1504
444.0	1526
444.2	1547
444.4	1570
444.6	1589
444.8	1621
445.0	1650
445.2	1678
445.4	1713
445.6	1742
445.8	1767
446.0	1800
446.2	1818
446.4	1845
446.6	1875
446.8	1897
447.0	1924
447.2	1947
447.4	1966
447.6	1999
447.8	2020
448.0	2052
448.2	2084
448.4	2116
448.6	2151
448.8	2186
449.0	2207
449.2	2236
449.4	2251
449.6	2274
449.8	2299
450.0	2326
450.2	2356
450.4	2397
450.6	2427
450.8	2459
451.0	2478
451.2	2498
451.4	2532
451.6	2564
451.8	2592
452.0	2616
452.2	2636
452.4	2658
452.6	2686
452.8	2712
453.0	2740
453.2	2768
453.4	2803
453.6	2835
453.8	2860
454.0	2885
454.2	2916
454.4	2941
454.6	2974
454.8	3004
455.0	3037
455.2	3061
455.4	3093
455.6	3124
455.8	3158
456.0	3186
456.2	3215
456.4	3238
456.6	3272
456.8	3314
457.0	3339
457.2	3356
457.4	3373
457.6	3402
457.8	3433
458.0	3477
458.2	3496
458.4	3513
458.6	3534
458.8	3558
459.0	3592
459.2	3631
459.4	3664
459.6	3700
459.8	3720
460.0	3740
460.2	3778
460.4	3791
460.6	3826
460.8	3857
461.0	3884
461.2	3924
461.4	3958
461.6	3974
461.8	3997
462.0	4015
462.2	4037
462.4	4069
462.6	4098
462.8	4130
463.0	4150
463.2	4171
463.4	4192
463.6	4220
463.8	4239
464.0	4272
464.2	4294
464.4	4317
464.6	4359
464.8	4400
465.0	4414
465.2	4437
465.4	4443
465.6	4459
465.8	4497
466.0	4524
466.2	4560
466.4	4595
466.6	4621
466.8	4652
467.0	4663
467.2	4671
467.4	4691
467.6	4714
467.8	4726
468.0	4752
468.2	4770
468.4	4801
468.6	4820
468.8	4844
469.0	4851
469.2	4871
469.4	4897
469.6	4937
469.8	4968
470.0	4991
470.2	5007
470.4	5011
470.6	5021
470.8	5050
471.0	5066
471.2	5084
471.4	5103
471.6	5116
471.8	5139
472.0	5174
472.2	5200
472.4	5222
472.6	5238
472.8	5248
473.0	5258
473.2	5268
473.4	5286
473.6	5301
473.8	5324
474.0	5350
474.2	5378
474.4	5405
474.6	5414
474.8	5409
475.0	5410
475.2	5428
475.4	5449
475.6	5474
475.8	5481
476.0	5491
476.2	5515
476.4	5526
476.6	5529
476.8	5540
477.0	5525
477.2	5542
477.4	5578
477.6	5591
477.8	5601
478.0	5616
478.2	5621
478.4	5630
478.6	5659
478.8	5674
479.0	5671
479.2	5684
479.4	5696
479.6	5696
479.8	5711
480.0	5713
480.2	5707
480.4	5735
480.6	5751
480.8	5765
481.0	5782
481.2	5791
481.4	5792
481.6	5796
481.8	5792
482.0	5794
482.2	5813
482.4	5820
482.6	5827
482.8	5825
483.0	5816
483.2	5812
483.4	5821
483.6	5815
483.8	5838
484.0	5853
484.2	5855
484.4	5855
484.6	5844
484.8	5838
485.0	5846
485.2	5854
485.4	5849
485.6	5862
485.8	5851
486.0	5841
486.2	5839
486.4	5851
486.6	5856
486.8	5871
487.0	5871
487.2	5860
487.4	5852
487.6	5850
487.8	5870
488.0	5872
488.2	5863
488.4	5842
488.6	5835
488.8	5838
489.0	5844
489.2	5838
489.4	5824
489.6	5815
489.8	5832
490.0	5831
490.2	5817
490.4	5813
490.6	5784
490.8	5770
491.0	5760
491.2	5755
491.4	5762
491.6	5776
491.8	5776
492.0	5773
492.2	5754
492.4	5750
492.6	5753
492.8	5764
493.0	5766
493.2	5750
493.4	5720
493.6	5685
493.8	5679
494.0	5685
494.2	5682
494.4	5663
494.6	5662
494.8	5645
495.0	5650
495.2	5650
495.4	5647
495.6	5611
495.8	5599
496.0	5585
496.2	5575
496.4	5553
496.6	5545
496.8	5529
497.0	5510
497.2	5508
497.4	5500
497.6	5490
497.8	5494
498.0	5499
498.2	5470
498.4	5443
498.6	5425
498.8	5409
499.0	5402
499.2	5404
499.4	5385
499.6	5361
499.8	5349
500.0	5340
500.2	5333
500.4	5323
500.6	5306
500.8	5289
501.0	5285
501.2	5274
501.4	5256
501.6	5231
501.8	5204
502.0	5184
502.2	5169
502.4	5172
502.6	5161
502.8	5154
503.0	5132
503.2	5106
503.4	5081
503.6	5079
503.8	5063
504.0	5052
504.2	5037
504.4	5023
504.6	4999
504.8	4981
505.0	4968
505.2	4936
505.4	4920
505.6	4915
505.8	4893
506.0	4887
506.2	4871
506.4	4837
506.6	4821
506.8	4821
507.0	4801
507.2	4797
507.4	4785
507.6	4761
507.8	4735
508.0	4718
508.2	4691
508.4	4683
508.6	4672
508.8	4654
509.0	4639
509.2	4614
509.4	4592
509.6	4588
509.8	4567
510.0	4557
510.2	4544
510.4	4517
510.6	4504
510.8	4503
511.0	4481
511.2	4472
511.4	4451
511.6	4417
511.8	4414
512.0	4409
512.2	4388
512.4	4377
512.6	4353
512.8	4316
513.0	4308
513.2	4283
513.4	4258
513.6	4237
513.8	4215
514.0	4189
514.2	4175
514.4	4155
514.6	4142
514.8	4126
515.0	4124
515.2	4107
515.4	4083
515.6	4066
515.8	4056
516.0	4034
516.2	4035
516.4	4020
516.6	3987
516.8	3960
517.0	3957
517.2	3927
517.4	3917
517.6	3905
517.8	3884
518.0	3857
518.2	3845
518.4	3805
518.6	3782
518.8	3775
519.0	3767
519.2	3765
519.4	3760
519.6	3737
519.8	3709
520.0	3697
520.2	3680
520.4	3675
520.6	3665
520.8	3637
521.0	3612
521.2	3583
521.4	3570
521.6	3569
521.8	3558
522.0	3533
522.2	3529
522.4	3507
522.6	3500
522.8	3486
523.0	3462
523.2	3435
523.4	3423
523.6	3399
523.8	3381
524.0	3363
524.2	3351
524.4	3345
524.6	3332
524.8	3316
525.0	3307
525.2	3294
525.4	3286
525.6	3278
525.8	3253
526.0	3230
526.2	3218
526.4	3203
526.6	3192
526.8	3182
527.0	3175
527.2	3165
527.4	3156
527.6	3137
527.8	3123
528.0	3105
528.2	3084
528.4	3068
528.6	3050
528.8	3041
529.0	3042
529.2	3032
529.4	3008
529.6	2984
529.8	2965
530.0	2966
530.2	2965
530.4	2956
530.6	2934
530.8	2907
531.0	2892
531.2	2892
531.4	2889
531.6	2874
531.8	2859
532.0	2844
532.2	2836
532.4	2823
532.6	2809
532.8	2786
533.0	2776
533.2	2765
533.4	2755
533.6	2741
533.8	2738
534.0	2731
534.2	2723
534.4	2721
534.6	2707
534.8	2687
535.0	2670
535.2	2645
535.4	2625
535.6	2616
535.8	2605
536.0	2605
536.2	2595
536.4	2584
536.6	2570
536.8	2557
537.0	2550
537.2	2544
537.4	2524
537.6	2521
537.8	2510
538.0	2498
538.2	2497
538.4	2495
538.6	2478
538.8	2468
539.0	2455
539.2	2445
539.4	2437
539.6	2429
539.8	2418
540.0	2398
540.2	2385
540.4	2378
540.6	2363
540.8	2350
541.0	2345
541.2	2325
541.4	2306
541.6	2293
541.8	2286
542.0	2281
542.2	2271
542.4	2262
542.6	2251
542.8	2248
543.0	2256
543.2	2245
543.4	2233
543.6	2228
543.8	2217
544.0	2207
544.2	2199
544.4	2180
544.6	2165
544.8	2147
545.0	2135
545.2	2118
545.4	2112
545.6	2108
545.8	2099
546.0	2089
546.2	2085
546.4	2071
546.6	2071
546.8	2064
547.0	2057
547.2	2049
547.4	2038
547.6	2023
547.8	2012
548.0	2008
548.2	2004
548.4	1996
548.6	1986
548.8	1963
549.0	1942
549.2	1927
549.4	1914
549.6	1904
549.8	1896
550.0	1890
550.2	1889
550.4	1887
550.6	1879
550.8	1864
551.0	1851
551.2	1839
551.4	1837
551.6	1825
551.8	1814
552.0	1801
552.2	1798
552.4	1803
552.6	1807
552.8	1794
553.0	1783
553.2	1768
553.4	1757
553.6	1752
553.8	1740
554.0	1724
554.2	1718
554.4	1721
554.6	1718
554.8	1709
555.0	1699
555.2	1678
555.4	1668
555.6	1667
555.8	1660
556.0	1648
556.2	1646
556.4	1635
556.6	1633
556.8	1627
557.0	1623
557.2	1615
557.4	1604
557.6	1587
557.8	1574
558.0	1563
558.2	1558
558.4	1547
558.6	1534
558.8	1527
559.0	1521
559.2	1525
559.4	1516
559.6	1508
559.8	1496
560.0	1484
560.2	1471
560.4	1470
560.6	1464
560.8	1470
561.0	1469
561.2	1459
561.4	1441
561.6	1432
561.8	1422
562.0	1419
562.2	1414
562.4	1405
562.6	1396
562.8	1389
563.0	1382
563.2	1378
563.4	1376
563.6	1367
563.8	1362
564.0	1355
564.2	1348
564.4	1342
564.6	1341
564.8	1332
565.0	1325
565.2	1321
565.4	1315
565.6	1303
565.8	1294
566.0	1280
566.2	1276
566.4	1271
566.6	1263
566.8	1253
567.0	1248
567.2	1237
567.4	1235
567.6	1228
567.8	1215
568.0	1208
568.2	1207
568.4	1204
568.6	1200
568.8	1194
569.0	1193
569.2	1185
569.4	1178
569.6	1168
569.8	1161
570.0	1156
570.2	1159
570.4	1153
570.6	1147
570.8	1143
571.0	1138
571.2	1136
571.4	1131
571.6	1119
571.8	1107
572.0	1097
572.2	1086
572.4	1086
572.6	1087
572.8	1087
573.0	1083
573.2	1069
573.4	1058
573.6	1046
573.8	1045
574.0	1040
574.2	1036
574.4	1031
574.6	1031
574.8	1029
575.0	1021
575.2	1014
575.4	1012
575.6	1007
575.8	1003
576.0	994.6
576.2	983.2
576.4	982.9
576.6	985.5
576.8	984.5
577.0	978.8
577.2	970.9
577.4	964.9
577.6	956.5
577.8	951.6
578.0	949.1
578.2	942.1
578.4	941.8
578.6	937.8
578.8	934.5
579.0	935.2
579.2	937.8
579.4	931.6
579.6	926.5
579.8	914.5
580.0	906.8
580.2	899.7
580.4	897.8
580.6	893.1
580.8	890.9
581.0	880.6
581.2	872.7
581.4	865.0
581.6	861.0
581.8	863.2
582.0	868.8
582.2	867.3
582.4	866.5
582.6	861.1
582.8	848.5
583.0	841.5
583.2	831.5
583.4	824.6
583.6	817.2
583.8	818.5
584.0	818.4
584.2	820.1
584.4	814.9
584.6	812.2
584.8	804.7
585.0	798.7
585.2	792.6
585.4	790.5
585.6	788.8
585.8	789.4
586.0	790.6
586.2	784.6
586.4	773.7
586.6	771.0
586.8	765.4
587.0	758.8
587.2	761.0
587.4	756.6
587.6	753.2
587.8	758.2
588.0	753.5
588.2	746.2
588.4	741.0
588.6	731.2
588.8	728.5
589.0	730.9
589.2	729.8
589.4	723.7
589.6	717.7
589.8	715.3
590.0	712.4
590.2	708.5
590.4	707.4
590.6	706.3
590.8	701.0
591.0	700.7
591.2	699.1
591.4	691.1
591.6	687.6
591.8	685.2
592.0	675.7
592.2	675.3
592.4	673.7
592.6	671.7
592.8	670.4
593.0	664.8
593.2	663.1
593.4	659.9
593.6	653.5
593.8	652.2
594.0	647.8
594.2	637.9
594.4	638.9
594.6	638.6
594.8	637.6
595.0	638.9
595.2	633.1
595.4	623.0
595.6	619.2
595.8	615.4
596.0	610.9
596.2	611.9
596.4	607.8
596.6	607.3
596.8	607.5
597.0	599.8
597.2	595.4
597.4	596.4
597.6	593.5
597.8	589.9
598.0	587.8
598.2	580.4
598.4	574.9
598.6	576.4
598.8	575.5
599.0	573.4
599.2	573.6
599.4	566.2
599.6	558.6
599.8	555.7
600.0	548.7
600.2	546.9
600.4	547.5
600.6	542.1
600.8	541.2
601.0	539.0
601.2	533.8
601.4	532.0
601.6	529.6
601.8	524.8
602.0	521.1
602.2	515.4
602.4	512.6
602.6	515.5
602.8	519.0
603.0	518.2
603.2	515.6
603.4	510.0
603.6	500.0
603.8	492.2
604.0	493.2
604.2	489.8
604.4	494.6
604.6	494.1
604.8	490.6
605.0	483.8
605.2	480.6
605.4	478.5
605.6	481.7
605.8	480.3
606.0	479.9
606.2	475.8
606.4	472.3
606.6	470.4
606.8	465.3
607.0	461.8
607.2	456.3
607.4	453.5
607.6	454.1
607.8	454.0
608.0	452.9
608.2	453.3
608.4	450.5
608.6	447.1
608.8	442.3
609.0	437.6
609.2	434.5
609.4	433.7
609.6	432.9
609.8	429.9
610.0	425.0
610.2	424.8
610.4	423.1
610.6	423.2
610.8	424.9
611.0	422.2
611.2	417.8
611.4	416.4
611.6	414.0
611.8	406.4
612.0	403.1
612.2	396.5
612.4	391.9
612.6	389.4
612.8	392.4
613.0	391.7
613.2	396.1
613.4	395.2
613.6	393.5
613.8	389.5
614.0	388.5
614.2	386.4
614.4	382.0
614.6	379.5
614.8	379.7
615.0	374.8
615.2	375.5
615.4	372.9
615.6	367.2
615.8	370.5
616.0	371.1
616.2	368.9
616.4	368.8
616.6	364.1
616.8	360.1
617.0	359.5
617.2	355.2
617.4	354.8
617.6	353.9
617.8	351.0
618.0	347.7
618.2	346.1
618.4	347.9
618.6	347.7
618.8	345.6
619.0	340.8
619.2	335.6
619.4	330.0
619.6	328.2
619.8	327.4
620.0	330.1
620.2	331.2
620.4	331.1
620.6	329.0
620.8	325.7
621.0	324.2
621.2	323.7
621.4	320.2
621.6	316.1
621.8	315.0
622.0	311.6
622.2	309.8
622.4	310.3
622.6	311.1
622.8	312.4
623.0	307.0
623.2	301.0
623.4	297.6
623.6	295.4
623.8	292.8
624.0	291.9
624.2	287.9
624.4	289.6
624.6	293.9
624.8	293.7
625.0	293.2
625.2	290.1
625.4	289.1
625.6	288.2
625.8	287.8
626.0	283.1
626.2	279.7
626.4	273.9
626.6	270.5
626.8	268.5
627.0	267.8
627.2	265.1
627.4	264.8
627.6	265.7
627.8	266.3
628.0	266.9
628.2	265.8
628.4	261.9
628.6	257.7
628.8	253.4
629.0	251.7
629.2	249.3
629.4	250.5
629.6	256.2
629.8	257.2
630.0	256.0
630.2	252.7
630.4	246.0
630.6	243.5
630.8	244.7
631.0	242.0
631.2	239.6
631.4	234.4
631.6	232.0
631.8	232.1
632.0	234.3
632.2	233.8
632.4	233.1
632.6	229.8
632.8	228.1
633.0	225.6
633.2	225.7
633.4	225.7
633.6	223.5
633.8	221.9
634.0	221.3
634.2	219.2
634.4	215.5
634.6	217.7
634.8	215.6
635.0	214.1
635.2	212.9
635.4	212.6
635.6	209.2
635.8	208.9
636.0	206.4
636.2	202.5
636.4	201.9
636.6	205.1
636.8	206.4
637.0	206.2
637.2	203.5
637.4	199.4
637.6	196.3
637.8	195.7
638.0	193.8
638.2	194.2
638.4	192.3
638.6	190.2
638.8	189.0
639.0	188.2
639.2	185.7
639.4	186.1
639.6	185.0
639.8	181.4
640.0	181.7
640.2	180.7
640.4	180.2
640.6	180.7
640.8	181.1
641.0	178.1
641.2	176.4
641.4	173.4
641.6	172.8
641.8	171.1
642.0	170.9
642.2	169.0
642.4	168.2
642.6	167.3
642.8	165.7
643.0	161.6
643.2	160.0
643.4	157.3
643.6	160.5
643.8	163.8
644.0	163.8
644.2	160.4
644.4	156.7
644.6	152.0
644.8	151.9
645.0	153.0
645.2	154.9
645.4	155.2
645.6	154.1
645.8	153.4
646.0	153.4
646.2	151.4
646.4	151.1
646.6	148.5
646.8	146.2
647.0	147.2
647.2	149.8
647.4	149.5
647.6	150.1
647.8	146.9
648.0	143.6
648.2	142.7
648.4	143.0
648.6	141.9
648.8	140.4
649.0	137.1
649.2	135.2
649.4	135.1
649.6	135.5
649.8	136.7
650.0	136.5
650.2	136.0
650.4	135.5
650.6	133.7
650.8	131.0
651.0	128.8
651.2	127.2
651.4	127.7
651.6	129.2
651.8	129.8
652.0	129.8
652.2	127.3
652.4	125.3
652.6	124.5
652.8	124.5
653.0	123.9
653.2	124.1
653.4	121.6
653.6	120.3
653.8	120.7
654.0	120.6
654.2	120.1
654.4	119.9
654.6	119.3
654.8	117.3
655.0	117.1
655.2	118.5
655.4	118.6
655.6	117.2
655.8	116.9
656.0	111.8
656.2	110.7
656.4	111.1
656.6	111.1
656.8	109.5
657.0	109.3
657.2	108.0
657.4	107.4
657.6	108.2
657.8	109.0
658.0	108.9
658.2	109.2
658.4	109.2
658.6	107.6
658.8	107.5
659.0	106.6
659.2	106.4
659.4	105.3
659.6	104.3
659.8	102.1
660.0	101.3
660.2	101.0
660.4	102.4
660.6	102.8
660.8	101.7
661.0	98.34
661.2	96.41
661.4	96.03
661.6	95.99
661.8	97.04
662.0	97.38
662.2	97.42
662.4	97.56
662.6	95.88
662.8	92.88
663.0	92.27
663.2	91.02
663.4	92.57
663.6	93.73
663.8	92.64
664.0	92.23
664.2	91.14
664.4	90.18
664.6	89.34
664.8	88.59
665.0	87.90
665.2	87.46
665.4	86.23
665.6	86.79
665.8	87.80
666.0	88.60
666.2	86.88
666.4	85.88
666.6	84.50
666.8	83.48
667.0	84.50
667.2	82.09
667.4	80.63
667.6	80.88
667.8	81.22
668.0	81.59
668.2	81.80
668.4	80.37
668.6	81.16
668.8	80.08
669.0	80.26
669.2	78.84
669.4	77.87
669.6	78.22
669.8	78.47
670.0	78.64
670.2	79.86
670.4	78.17
670.6	78.56
670.8	78.15
671.0	76.64
671.2	75.88
671.4	74.77
671.6	74.10
671.8	74.53
672.0	74.61
672.2	73.44
672.4	71.89
672.6	70.37
672.8	70.81
673.0	70.98
673.2	71.77
673.4	71.29
673.6	71.35
673.8	70.90
674.0	72.40
674.2	70.99
674.4	68.13
674.6	67.04
674.8	67.38
675.0	67.57
675.2	69.28
675.4	67.16
675.6	65.82
675.8	65.72
676.0	65.88
676.2	65.98
676.4	65.31
676.6	62.65
676.8	63.01
677.0	62.98
677.2	63.26
677.4	62.76
677.6	62.67
677.8	62.63
678.0	62.26
678.2	61.09
678.4	60.70
678.6	59.59
678.8	59.68
679.0	60.63
679.2	59.13
679.4	58.98
679.6	58.50
679.8	59.29
680.0	60.26
680.2	59.75
680.4	58.88
680.6	59.18
680.8	56.59
681.0	56.91
681.2	57.26
681.4	56.83
681.6	57.05
681.8	57.32
682.0	56.37
682.2	55.97
682.4	55.73
682.6	56.05
682.8	55.59
683.0	56.19
683.2	55.14
683.4	53.89
683.6	53.46
683.8	52.21
684.0	52.68
684.2	53.39
684.4	52.59
684.6	52.47
684.8	52.39
685.0	51.80
685.2	53.22
685.4	53.70
685.6	53.32
685.8	53.18
686.0	53.17
686.2	53.19
686.4	52.74
686.6	52.84
686.8	51.75
687.0	50.34
687.2	51.14
687.4	52.80
687.6	53.70
687.8	53.15
688.0	52.33
688.2	50.14
688.4	49.35
688.6	49.37
688.8	48.97
689.0	48.23
689.2	47.86
689.4	48.23
689.6	48.85
689.8	49.37
690.0	49.93
690.2	50.90
690.4	49.33
690.6	50.17
690.8	50.32
691.0	49.33
691.2	48.12
691.4	47.15
691.6	46.03
691.8	46.60
692.0	46.21
692.2	45.34
692.4	45.28
692.6	45.14
692.8	45.73
693.0	45.89
693.2	46.14
693.4	45.91
693.6	46.53
693.8	45.59
694.0	44.58
694.2	42.97
694.4	42.76
694.6	41.98
694.8	42.14
695.0	41.50
695.2	41.80
695.4	41.19
695.6	43.01
695.8	43.14
696.0	42.80
696.2	41.87
696.4	41.11
696.6	40.28
696.8	40.79
697.0	40.93
697.2	40.86
697.4	40.39
697.6	39.64
697.8	39.54
698.0	39.38
698.2	39.24
698.4	39.44
698.6	38.59
698.8	38.98
699.0	39.49
699.2	39.95
699.4	39.76
699.6	39.80
699.8	39.04
700.0	39.12
700.2	38.23
700.4	38.48
700.6	38.94
700.8	38.78
701.0	38.95
701.2	39.18
701.4	37.58
701.6	36.37
701.8	34.77
702.0	33.40
702.2	34.49
702.4	36.87
702.6	36.99
702.8	37.21
703.0	36.13
703.2	35.75
703.4	36.12
703.6	36.25
703.8	35.05
704.0	35.04
704.2	34.84
704.4	35.34
704.6	34.48
704.8	33.79
705.0	33.54
705.2	33.76
705.4	34.64
705.6	35.34
705.8	35.76
706.0	36.29
706.2	36.70
706.4	36.29
706.6	35.70
706.8	34.80
707.0	35.27
707.2	34.98
707.4	34.37
707.6	34.13
707.8	33.69
708.0	32.70
708.2	32.63
708.4	31.60
708.6	31.55
708.8	32.28
709.0	32.74
709.2	33.84
709.4	35.19
709.6	34.75
709.8	34.97
710.0	33.58
710.2	32.59
710.4	32.00
710.6	32.93
710.8	32.60
711.0	32.88
711.2	32.33
711.4	33.57
711.6	34.03
711.8	34.50
712.0	33.67
712.2	32.60
712.4	31.09
712.6	32.10
712.8	32.88
713.0	32.52
713.2	32.60
713.4	32.48
713.6	32.05
713.8	32.72
714.0	32.67
714.2	32.36
714.4	32.17
714.6	32.15
714.8	31.36
715.0	30.49
715.2	30.11
715.4	30.00
715.6	29.85
715.8	30.35
716.0	30.36
716.2	30.53
716.4	29.85
716.6	28.41
716.8	26.88
717.0	26.36
717.2	26.96
717.4	28.29
717.6	27.82
717.8	27.96
718.0	27.42
718.2	27.12
718.4	27.09
718.6	27.80
718.8	26.64
719.0	26.88
719.2	26.81
719.4	26.96
719.6	27.12
719.8	27.41
720.0	26.76
720.2	26.10
720.4	24.99
720.6	24.11
720.8	24.00
721.0	25.04
721.2	26.61
721.4	27.07
721.6	26.41
721.8	25.22
722.0	24.59
722.2	24.84
722.4	24.90
722.6	24.63
722.8	24.36
723.0	23.97
723.2	23.26
723.4	22.39
723.6	22.37
723.8	22.06
724.0	22.61
724.2	23.72
724.4	23.21
724.6	23.43
724.8	23.42
725.0	23.27
725.2	22.97
725.4	22.66
725.6	22.20
725.8	22.86
726.0	23.54
726.2	24.13
726.4	24.37
726.6	23.49
726.8	22.84
727.0	22.49
727.2	22.74
727.4	22.09
727.6	22.50
727.8	22.34
728.0	22.58
728.2	22.57
728.4	21.98
728.6	21.15
728.8	21.02
729.0	20.71
729.2	20.40
729.4	20.42
729.6	20.22
729.8	20.38
730.0	20.47
730.2	20.82
730.4	21.10
730.6	21.23
730.8	20.47
731.0	19.68
731.2	19.04
731.4	19.03
731.6	19.80
731.8	20.89
732.0	21.02
732.2	21.34
732.4	21.51
732.6	21.14
732.8	20.75
733.0	19.82
733.2	19.09
733.4	18.99
733.6	19.44
733.8	20.41
734.0	20.66
734.2	20.11
734.4	19.80
734.6	19.83
734.8	19.74
735.0	20.13
735.2	19.39
735.4	19.74
735.6	19.79
735.8	19.55
736.0	19.47
736.2	19.01
736.4	18.28
736.6	18.40
736.8	18.65
737.0	18.57
737.2	19.42
737.4	19.35
737.6	18.96
737.8	18.37
738.0	17.63
738.2	17.00
738.4	17.25
738.6	17.31
738.8	17.50
739.0	17.77
739.2	17.22
739.4	17.01
739.6	16.89
739.8	16.57
740.0	16.99
740.2	16.75
740.4	16.58
740.6	17.14
740.8	16.46
741.0	15.89
741.2	16.07
741.4	15.98
741.6	16.52
741.8	17.41
742.0	17.36
742.2	16.49
742.4	17.06
742.6	16.86
742.8	16.20
743.0	16.03
743.2	15.89
743.4	14.98
743.6	15.59
743.8	15.50
744.0	14.64
744.2	14.33
744.4	14.01
744.6	13.99
744.8	14.78
745.0	15.71
745.2	15.52
745.4	15.32
745.6	14.53
745.8	14.45
746.0	14.27
746.2	14.32
746.4	14.15
746.6	14.19
746.8	13.64
747.0	14.61
747.2	14.78
747.4	14.58
747.6	14.69
747.8	14.36
748.0	13.50
748.2	13.85
748.4	14.00
748.6	13.56
748.8	13.75
749.0	13.25
749.2	13.34
749.4	13.48
749.6	14.39
749.8	15.02
750.0	15.13
750.2	14.40
750.4	14.10
750.6	13.54
750.8	13.44
751.0	13.14
751.2	12.55
751.4	12.68
751.6	12.85
751.8	12.90
752.0	12.95
752.2	13.01
752.4	13.49
752.6	14.47
752.8	14.54
753.0	14.33
753.2	14.12
753.4	13.89
753.6	14.18
753.8	13.84
754.0	13.52
754.2	13.18
754.4	13.15
754.6	12.48
754.8	12.89
755.0	12.53
755.2	13.06
755.4	13.09
755.6	13.20
755.8	13.12
756.0	13.73
756.2	13.56
756.4	13.23
756.6	12.70
756.8	12.32
757.0	12.26
757.2	12.67
757.4	12.22
757.6	12.13
757.8	12.45
758.0	12.82
758.2	13.23
758.4	13.27
758.6	13.00
758.8	13.57
759.0	13.16
759.2	13.28
759.4	13.63
759.6	13.91
759.8	14.15
760.0	14.67
760.2	14.27
760.4	13.49
760.6	12.91
760.8	13.37
761.0	13.74
761.2	14.64
761.4	14.53
761.6	13.33
761.8	13.14
762.0	13.14
762.2	13.56
762.4	14.51
762.6	13.77
762.8	13.32
763.0	13.07
763.2	13.14
763.4	13.40
763.6	14.37
763.8	14.41
764.0	13.70
764.2	12.58
764.4	11.78
764.6	11.58
764.8	12.23
765.0	12.43
765.2	12.13
765.4	11.84
765.6	11.27
765.8	12.11
766.0	12.70
766.2	12.23
766.4	11.86
766.6	11.33
766.8	10.86
767.0	11.54
767.2	11.74
767.4	11.48
767.6	11.81
767.8	11.92
768.0	11.61
768.2	11.55
768.4	11.00
768.6	10.92
768.8	11.86
769.0	11.70
769.2	11.65
769.4	11.53
769.6	11.19
769.8	10.74
770.0	10.77
770.2	10.17
770.4	9.933
770.6	10.09
770.8	10.17
771.0	9.724
771.2	9.769
771.4	9.479
771.6	9.208
771.8	8.800
772.0	8.751
772.2	9.255
772.4	9.682
772.6	10.19
772.8	10.49
773.0	9.855
773.2	9.203
773.4	9.376
773.6	9.139
773.8	9.532
774.0	9.565
774.2	9.465
774.4	9.009
774.6	9.208
774.8	8.642
775.0	8.345
775.2	8.003
775.4	7.904
775.6	8.163
775.8	8.777
776.0	8.259
776.2	8.501
776.4	8.544
776.6	8.475
776.8	8.368
777.0	8.395
777.2	7.630
777.4	7.648
777.6	7.888
777.8	8.098
778.0	8.130
778.2	8.423
778.4	7.915
778.6	7.728
778.8	7.647
779.0	8.358
779.2	8.721
779.4	8.814
779.6	8.182
779.8	8.070
780.0	7.496
780.2	7.949
780.4	7.547
780.6	7.182
780.8	7.203
781.0	7.530
781.2	7.279
781.4	7.501
781.6	7.407
781.8	7.595
782.0	7.984
782.2	8.227
782.4	8.324
782.6	8.735
782.8	8.711
783.0	8.736
783.2	8.618
783.4	8.471
783.6	8.116
783.8	7.688
784.0	7.168
784.2	7.050
784.4	7.361
784.6	7.769
784.8	7.591
785.0	7.325
785.2	7.378
785.4	7.730
785.6	7.943
785.8	8.304
786.0	7.997
786.2	7.617
786.4	7.431
786.6	7.526
786.8	7.418
787.0	7.536
787.2	7.724
787.4	7.821
787.6	8.213
787.8	8.381
788.0	8.421
788.2	8.204
788.4	8.315
788.6	7.921
788.8	8.314
789.0	8.514
789.2	8.743
789.4	8.822
789.6	8.626
789.8	8.377
790.0	8.595
790.2	8.606
790.4	8.917
790.6	8.654
790.8	8.102
791.0	8.000
791.2	8.348
791.4	8.656
791.6	9.052
791.8	8.583
792.0	8.295
792.2	7.631
792.4	8.112
792.6	8.304
792.8	8.150
793.0	8.010
793.2	8.128
793.4	8.050
793.6	8.353
793.8	8.699
794.0	8.597
794.2	8.765
794.4	8.967
794.6	8.524
794.8	7.590
795.0	7.885
795.2	7.533
795.4	8.131
795.6	8.675
795.8	8.741
796.0	8.723
796.2	8.992
796.4	8.360
796.6	8.439
796.8	8.294
797.0	8.178
797.2	8.467
797.4	8.275
797.6	8.424
797.8	8.410
798.0	8.363
798.2	7.835
798.4	8.015
798.6	7.998
798.8	8.533
799.0	8.341
799.2	8.571
799.4	8.638
799.6	9.151
799.8	9.355
800.0	8.853

