Sample:	'20211010A(EM)
File name:	b-cds-cho 1;5 800v.FDS
Run date:	'14:55:09, 03/22/2023
Operator:	Administrator
Comment:	'

Instrument
Model:	F-4700 FL Spectrophotometer
Serial number:	2019-001
ROM Version:	5J24010 00

Instrument parameters
Measurement type:	Wavelength scan
Scan mode:	Emission
Data mode:	Fluorescence
EX WL:	350.0 nm
EM  Start WL:	370.0 nm
EM  End WL:	800.0 nm
Scan speed:	1200 nm/min
Delay:	0.0 s
EX Slit:	10.0 nm
EM Slit:	10.0 nm
PMT Voltage:	800 V
Response:	0.002 s
Corrected spectra:	Off
Shutter control:	On

Processing performed
Savitsky-Golay smoothed
Smoothing order:	3
Number of points:	7
Number of times:	1

Peak integration
Integration method:	Rectangular
Sensitivity:	1
Threshold:	1.000

Peaks
No.	Start(nm)	Apex(nm)	End(nm)	Height(Data)	Valley(nm)	Valley(Data)
1	370.0	372.2	373.2	11.67	373.2	9.069
2	373.2	374.0	374.6	10.79	374.6	8.792
3	374.6	375.6	377.4	12.68	377.4	8.209
4	377.4	380.8	382.2	12.41	382.2	7.884
5	382.2	383.2	383.8	14.86	383.8	9.012
6	383.8	384.4	385.8	12.59	385.8	7.226
7	385.8	388.0	389.6	14.88	389.6	9.620
8	389.6	390.0	391.6	16.08	391.6	9.306
9	391.6	393.2	394.2	15.35	394.2	11.61
10	394.2	396.2	396.8	17.62	396.8	11.36
11	396.8	400.4	402.0	21.46	402.0	16.91
12	402.0	402.4	403.0	19.43	403.0	14.76
13	403.0	404.2	405.0	23.69	405.0	18.76
14	405.0	406.4	407.6	24.16	407.6	19.71
15	407.6	412.0	413.0	29.18	413.0	23.28
16	413.0	416.8	417.2	34.52	417.2	28.21
17	417.2	420.6	422.0	46.09	422.0	40.70
18	422.0	423.4	424.4	54.89	424.4	48.43
19	424.4	426.4	427.8	64.44	427.8	53.03
20	427.8	444.0	444.6	163.6	444.6	146.7
21	444.6	448.2	449.0	208.5	449.0	191.3
22	449.0	503.8	505.2	4365	505.2	4295
23	505.2	506.4	508.0	4428	508.0	4307
24	508.0	510.6	511.4	4404	511.4	4293
25	511.4	512.0	515.4	4393	515.4	4299
26	515.4	517.0	519.8	4373	519.8	4191
27	519.8	521.0	522.0	4247	522.0	4132
28	522.0	522.8	524.2	4268	524.2	4180
29	524.2	525.0	525.8	4274	525.8	4199
30	525.8	527.6	528.4	4339	528.4	4229
31	528.4	536.4	538.0	4662	538.0	4496
32	538.0	539.2	540.0	4668	540.0	4589
33	540.0	542.6	543.2	4723	543.2	4572
34	543.2	544.8	547.4	4705	547.4	4513
35	547.4	548.2	572.4	4604	572.4	3255
36	572.4	572.8	574.8	3307	574.8	3201
37	574.8	575.6	578.8	3252	578.8	2994
38	578.8	579.6	585.0	3073	585.0	2727
39	585.0	585.4	599.0	2796	599.0	2156
40	599.0	600.0	602.8	2195	602.8	1944
41	602.8	603.8	606.8	2004	606.8	1832
42	606.8	608.0	616.2	1869	616.2	1506
43	616.2	617.0	633.4	1557	633.4	947.3
44	633.4	634.0	656.8	1004	656.8	465.0
45	656.8	657.8	659.6	510.4	659.6	439.1
46	659.6	660.4	671.6	464.5	671.6	283.6
47	671.6	672.4	679.0	312.6	679.0	239.2
48	679.0	680.4	684.0	249.3	684.0	200.3
49	684.0	684.6	685.6	222.8	685.6	202.9
50	685.6	688.4	692.2	217.2	692.2	181.0
51	692.2	693.2	694.2	201.0	694.2	179.8
52	694.2	695.2	697.6	190.3	697.6	163.9
53	697.6	698.2	698.8	179.5	698.8	161.2
54	698.8	699.8	702.2	171.1	702.2	151.1
55	702.2	702.6	703.4	166.2	703.4	149.4
56	703.4	704.2	709.2	163.6	709.2	131.6
57	709.2	709.8	711.8	152.8	711.8	127.4
58	711.8	712.6	713.6	141.1	713.6	125.7
59	713.6	714.6	722.4	131.0	722.4	91.25
60	722.4	723.4	726.6	103.9	726.6	81.34
61	726.6	728.0	729.0	86.10	729.0	75.55
62	729.0	730.4	731.2	85.03	731.2	72.43
63	731.2	731.8	735.2	81.59	735.2	60.99
64	735.2	737.2	739.2	73.13	739.2	56.73
65	739.2	740.0	743.0	69.70	743.0	52.34
66	743.0	743.8	745.8	60.87	745.8	50.00
67	745.8	747.4	748.4	57.27	748.4	43.82
68	748.4	749.4	755.8	55.67	755.8	43.14
69	755.8	756.6	757.6	50.43	757.6	37.28
70	757.6	759.2	764.0	51.17	764.0	39.64
71	764.0	765.0	766.6	45.01	766.6	31.61
72	766.6	768.8	773.4	39.57	773.4	23.95
73	773.4	774.6	775.6	30.53	775.6	22.99
74	775.6	776.2	776.8	31.96	776.8	23.93
75	776.8	777.6	779.6	28.36	779.6	19.77
76	779.6	780.2	781.6	26.17	781.6	20.89
77	781.6	783.2	783.8	24.90	783.8	20.17
78	783.8	786.4	788.8	29.06	788.8	20.13
79	788.8	790.0	791.8	32.54	791.8	17.44
80	791.8	792.8	794.6	27.61	794.6	18.58
81	794.6	795.2	795.8	28.20	795.8	18.76

Data points
nm	Data
370.0	7.809
370.2	7.993
370.4	7.840
370.6	7.730
370.8	8.167
371.0	10.69
371.2	9.822
371.4	10.04
371.6	9.566
371.8	8.592
372.0	8.455
372.2	11.67
372.4	10.59
372.6	10.73
372.8	10.71
373.0	9.999
373.2	9.069
373.4	10.02
373.6	10.25
373.8	10.14
374.0	10.79
374.2	10.47
374.4	9.630
374.6	8.792
374.8	9.110
375.0	10.01
375.2	10.79
375.4	11.41
375.6	12.68
375.8	12.04
376.0	10.67
376.2	10.78
376.4	8.884
376.6	9.384
376.8	10.36
377.0	9.028
377.2	8.598
377.4	8.209
377.6	8.361
377.8	9.630
378.0	10.38
378.2	10.83
378.4	10.56
378.6	9.914
378.8	9.878
379.0	10.23
379.2	9.609
379.4	11.11
379.6	11.39
379.8	8.948
380.0	10.65
380.2	12.18
380.4	10.92
380.6	11.93
380.8	12.41
381.0	9.148
381.2	11.29
381.4	11.88
381.6	11.06
381.8	10.49
382.0	9.633
382.2	7.884
382.4	9.500
382.6	11.38
382.8	13.67
383.0	14.44
383.2	14.86
383.4	13.19
383.6	11.47
383.8	9.012
384.0	9.514
384.2	9.597
384.4	12.59
384.6	11.48
384.8	10.94
385.0	9.830
385.2	10.76
385.4	9.837
385.6	10.68
385.8	7.226
386.0	7.420
386.2	7.999
386.4	9.620
386.6	10.84
386.8	11.24
387.0	10.35
387.2	10.53
387.4	10.84
387.6	12.34
387.8	13.45
388.0	14.88
388.2	14.74
388.4	12.48
388.6	10.18
388.8	10.98
389.0	10.05
389.2	10.61
389.4	9.956
389.6	9.620
389.8	11.32
390.0	16.08
390.2	16.03
390.4	13.23
390.6	11.62
390.8	9.736
391.0	11.70
391.2	13.36
391.4	12.64
391.6	9.306
391.8	11.24
392.0	12.88
392.2	14.27
392.4	13.06
392.6	14.25
392.8	12.29
393.0	13.17
393.2	15.35
393.4	15.20
393.6	13.83
393.8	14.15
394.0	13.20
394.2	11.61
394.4	12.30
394.6	12.42
394.8	13.17
395.0	14.00
395.2	13.66
395.4	13.49
395.6	13.15
395.8	13.46
396.0	16.14
396.2	17.62
396.4	15.78
396.6	12.79
396.8	11.36
397.0	12.16
397.2	14.10
397.4	14.56
397.6	15.36
397.8	14.59
398.0	15.03
398.2	15.21
398.4	14.90
398.6	15.60
398.8	16.23
399.0	15.33
399.2	14.64
399.4	14.34
399.6	16.32
399.8	19.28
400.0	20.80
400.2	21.00
400.4	21.46
400.6	20.14
400.8	17.71
401.0	17.68
401.2	18.59
401.4	18.40
401.6	17.50
401.8	17.11
402.0	16.91
402.2	18.37
402.4	19.43
402.6	18.76
402.8	14.90
403.0	14.76
403.2	15.94
403.4	16.07
403.6	19.31
403.8	21.86
404.0	23.48
404.2	23.69
404.4	22.98
404.6	20.87
404.8	20.68
405.0	18.76
405.2	20.42
405.4	19.10
405.6	19.22
405.8	20.20
406.0	22.37
406.2	23.51
406.4	24.16
406.6	23.04
406.8	23.96
407.0	23.38
407.2	22.33
407.4	21.73
407.6	19.71
407.8	19.76
408.0	20.36
408.2	20.77
408.4	21.02
408.6	21.77
408.8	23.75
409.0	26.05
409.2	23.67
409.4	23.23
409.6	22.60
409.8	22.14
410.0	23.83
410.2	25.11
410.4	23.90
410.6	27.26
410.8	28.53
411.0	28.08
411.2	27.83
411.4	27.02
411.6	26.26
411.8	28.22
412.0	29.18
412.2	28.33
412.4	25.92
412.6	24.55
412.8	23.73
413.0	23.28
413.2	24.65
413.4	24.48
413.6	24.11
413.8	26.64
414.0	29.45
414.2	31.91
414.4	32.55
414.6	32.68
414.8	31.85
415.0	32.22
415.2	33.46
415.4	32.80
415.6	34.05
415.8	33.46
416.0	31.78
416.2	32.48
416.4	33.85
416.6	33.11
416.8	34.52
417.0	29.76
417.2	28.21
417.4	28.51
417.6	33.57
417.8	36.77
418.0	39.82
418.2	36.86
418.4	37.25
418.6	38.39
418.8	41.76
419.0	40.62
419.2	39.74
419.4	38.76
419.6	38.06
419.8	42.06
420.0	44.32
420.2	42.71
420.4	44.70
420.6	46.09
420.8	42.58
421.0	42.22
421.2	43.51
421.4	41.43
421.6	42.67
421.8	42.09
422.0	40.70
422.2	42.23
422.4	44.46
422.6	42.95
422.8	46.15
423.0	46.99
423.2	49.08
423.4	54.89
423.6	53.52
423.8	50.66
424.0	50.39
424.2	50.20
424.4	48.43
424.6	50.54
424.8	51.08
425.0	53.84
425.2	56.30
425.4	58.69
425.6	53.59
425.8	51.46
426.0	50.31
426.2	57.46
426.4	64.44
426.6	63.37
426.8	62.27
427.0	60.91
427.2	54.41
427.4	55.52
427.6	56.54
427.8	53.03
428.0	57.03
428.2	63.29
428.4	67.27
428.6	67.23
428.8	66.98
429.0	64.84
429.2	61.76
429.4	65.22
429.6	69.39
429.8	68.72
430.0	68.05
430.2	70.48
430.4	69.38
430.6	73.27
430.8	76.53
431.0	75.38
431.2	74.75
431.4	72.84
431.6	69.72
431.8	71.09
432.0	78.11
432.2	82.33
432.4	87.50
432.6	85.38
432.8	82.57
433.0	82.63
433.2	84.89
433.4	87.52
433.6	85.51
433.8	83.73
434.0	82.73
434.2	88.14
434.4	86.45
434.6	87.41
434.8	88.71
435.0	88.97
435.2	91.64
435.4	94.67
435.6	91.89
435.8	90.16
436.0	94.37
436.2	93.67
436.4	96.70
436.6	95.42
436.8	96.52
437.0	96.29
437.2	97.24
437.4	100.4
437.6	104.0
437.8	107.3
438.0	107.6
438.2	107.2
438.4	101.7
438.6	101.3
438.8	107.5
439.0	105.9
439.2	109.7
439.4	115.0
439.6	114.6
439.8	120.2
440.0	122.9
440.2	116.6
440.4	120.4
440.6	121.4
440.8	121.5
441.0	128.5
441.2	125.6
441.4	122.6
441.6	129.0
441.8	130.0
442.0	136.7
442.2	142.9
442.4	144.4
442.6	143.3
442.8	146.0
443.0	144.5
443.2	149.2
443.4	147.4
443.6	151.7
443.8	159.3
444.0	163.6
444.2	162.1
444.4	158.7
444.6	146.7
444.8	149.9
445.0	152.3
445.2	157.1
445.4	160.2
445.6	157.7
445.8	158.7
446.0	166.6
446.2	167.9
446.4	170.6
446.6	174.1
446.8	169.9
447.0	176.8
447.2	179.0
447.4	183.0
447.6	189.9
447.8	195.8
448.0	200.9
448.2	208.5
448.4	203.8
448.6	199.6
448.8	196.6
449.0	191.3
449.2	193.9
449.4	204.5
449.6	204.9
449.8	211.0
450.0	212.9
450.2	215.3
450.4	221.8
450.6	235.1
450.8	244.1
451.0	248.0
451.2	246.6
451.4	244.4
451.6	243.0
451.8	239.6
452.0	250.9
452.2	253.3
452.4	261.6
452.6	264.0
452.8	265.8
453.0	261.2
453.2	267.3
453.4	274.6
453.6	290.9
453.8	295.2
454.0	297.5
454.2	297.2
454.4	292.0
454.6	303.0
454.8	312.7
455.0	323.2
455.2	336.8
455.4	345.9
455.6	335.3
455.8	343.7
456.0	347.5
456.2	359.7
456.4	365.7
456.6	366.4
456.8	357.6
457.0	368.4
457.2	381.2
457.4	396.6
457.6	411.9
457.8	425.0
458.0	430.6
458.2	436.9
458.4	438.5
458.6	443.7
458.8	453.6
459.0	446.4
459.2	451.3
459.4	460.6
459.6	478.3
459.8	499.0
460.0	513.5
460.2	508.9
460.4	530.2
460.6	539.8
460.8	541.1
461.0	543.3
461.2	543.5
461.4	556.3
461.6	590.3
461.8	625.2
462.0	628.1
462.2	634.0
462.4	627.4
462.6	631.1
462.8	652.1
463.0	667.3
463.2	679.6
463.4	705.8
463.6	710.4
463.8	725.4
464.0	733.4
464.2	722.9
464.4	743.7
464.6	767.2
464.8	778.2
465.0	799.6
465.2	809.4
465.4	813.1
465.6	835.8
465.8	853.1
466.0	862.9
466.2	872.6
466.4	897.2
466.6	908.8
466.8	920.9
467.0	938.9
467.2	951.5
467.4	965.7
467.6	972.4
467.8	979.6
468.0	991.1
468.2	1021
468.4	1054
468.6	1085
468.8	1083
469.0	1102
469.2	1125
469.4	1136
469.6	1143
469.8	1166
470.0	1180
470.2	1195
470.4	1221
470.6	1224
470.8	1226
471.0	1260
471.2	1294
471.4	1313
471.6	1338
471.8	1355
472.0	1377
472.2	1394
472.4	1410
472.6	1410
472.8	1403
473.0	1428
473.2	1475
473.4	1500
473.6	1524
473.8	1529
474.0	1525
474.2	1548
474.4	1584
474.6	1635
474.8	1668
475.0	1700
475.2	1730
475.4	1735
475.6	1761
475.8	1792
476.0	1797
476.2	1819
476.4	1831
476.6	1820
476.8	1827
477.0	1852
477.2	1879
477.4	1914
477.6	1937
477.8	1957
478.0	1984
478.2	1998
478.4	2021
478.6	2032
478.8	2036
479.0	2039
479.2	2075
479.4	2109
479.6	2142
479.8	2176
480.0	2213
480.2	2231
480.4	2272
480.6	2333
480.8	2343
481.0	2356
481.2	2379
481.4	2408
481.6	2424
481.8	2461
482.0	2470
482.2	2467
482.4	2454
482.6	2467
482.8	2461
483.0	2511
483.2	2548
483.4	2564
483.6	2576
483.8	2613
484.0	2626
484.2	2692
484.4	2724
484.6	2744
484.8	2763
485.0	2792
485.2	2795
485.4	2835
485.6	2872
485.8	2896
486.0	2911
486.2	2932
486.4	2949
486.6	2983
486.8	3029
487.0	3033
487.2	3046
487.4	3035
487.6	3058
487.8	3067
488.0	3099
488.2	3150
488.4	3198
488.6	3224
488.8	3241
489.0	3235
489.2	3216
489.4	3255
489.6	3291
489.8	3326
490.0	3340
490.2	3341
490.4	3327
490.6	3332
490.8	3369
491.0	3401
491.2	3454
491.4	3461
491.6	3472
491.8	3442
492.0	3449
492.2	3480
492.4	3512
492.6	3543
492.8	3577
493.0	3590
493.2	3620
493.4	3647
493.6	3673
493.8	3714
494.0	3761
494.2	3766
494.4	3792
494.6	3756
494.8	3750
495.0	3731
495.2	3744
495.4	3754
495.6	3821
495.8	3826
496.0	3834
496.2	3824
496.4	3838
496.6	3880
496.8	3938
497.0	3959
497.2	3967
497.4	3968
497.6	3975
497.8	4009
498.0	4053
498.2	4060
498.4	4048
498.6	4067
498.8	4069
499.0	4105
499.2	4141
499.4	4147
499.6	4137
499.8	4169
500.0	4166
500.2	4159
500.4	4197
500.6	4186
500.8	4204
501.0	4221
501.2	4222
501.4	4198
501.6	4242
501.8	4211
502.0	4234
502.2	4229
502.4	4211
502.6	4230
502.8	4254
503.0	4265
503.2	4275
503.4	4311
503.6	4328
503.8	4365
504.0	4357
504.2	4350
504.4	4329
504.6	4322
504.8	4319
505.0	4304
505.2	4295
505.4	4307
505.6	4323
505.8	4332
506.0	4401
506.2	4411
506.4	4428
506.6	4422
506.8	4373
507.0	4360
507.2	4390
507.4	4372
507.6	4361
507.8	4331
508.0	4307
508.2	4324
508.4	4330
508.6	4363
508.8	4354
509.0	4365
509.2	4368
509.4	4376
509.6	4354
509.8	4389
510.0	4400
510.2	4385
510.4	4401
510.6	4404
510.8	4387
511.0	4349
511.2	4333
511.4	4293
511.6	4330
511.8	4352
512.0	4393
512.2	4370
512.4	4379
512.6	4377
512.8	4365
513.0	4328
513.2	4314
513.4	4310
513.6	4348
513.8	4355
514.0	4355
514.2	4318
514.4	4303
514.6	4309
514.8	4327
515.0	4319
515.2	4305
515.4	4299
515.6	4300
515.8	4336
516.0	4337
516.2	4310
516.4	4306
516.6	4346
516.8	4344
517.0	4373
517.2	4368
517.4	4309
517.6	4289
517.8	4278
518.0	4251
518.2	4248
518.4	4253
518.6	4235
518.8	4242
519.0	4216
519.2	4207
519.4	4214
519.6	4202
519.8	4191
520.0	4193
520.2	4203
520.4	4200
520.6	4233
520.8	4246
521.0	4247
521.2	4233
521.4	4184
521.6	4136
521.8	4132
522.0	4132
522.2	4177
522.4	4237
522.6	4227
522.8	4268
523.0	4246
523.2	4236
523.4	4245
523.6	4231
523.8	4195
524.0	4198
524.2	4180
524.4	4221
524.6	4231
524.8	4259
525.0	4274
525.2	4260
525.4	4246
525.6	4213
525.8	4199
526.0	4243
526.2	4293
526.4	4293
526.6	4295
526.8	4280
527.0	4296
527.2	4299
527.4	4337
527.6	4339
527.8	4324
528.0	4295
528.2	4252
528.4	4229
528.6	4271
528.8	4321
529.0	4389
529.2	4403
529.4	4405
529.6	4364
529.8	4338
530.0	4332
530.2	4371
530.4	4375
530.6	4431
530.8	4424
531.0	4427
531.2	4407
531.4	4379
531.6	4375
531.8	4398
532.0	4436
532.2	4461
532.4	4458
532.6	4446
532.8	4446
533.0	4427
533.2	4453
533.4	4460
533.6	4490
533.8	4481
534.0	4459
534.2	4461
534.4	4484
534.6	4486
534.8	4522
535.0	4527
535.2	4564
535.4	4583
535.6	4593
535.8	4596
536.0	4614
536.2	4634
536.4	4662
536.6	4643
536.8	4630
537.0	4596
537.2	4558
537.4	4535
537.6	4496
537.8	4497
538.0	4496
538.2	4529
538.4	4531
538.6	4576
538.8	4618
539.0	4667
539.2	4668
539.4	4642
539.6	4591
539.8	4592
540.0	4589
540.2	4609
540.4	4618
540.6	4590
540.8	4640
541.0	4688
541.2	4679
541.4	4684
541.6	4639
541.8	4602
542.0	4635
542.2	4692
542.4	4704
542.6	4723
542.8	4664
543.0	4598
543.2	4572
543.4	4572
543.6	4592
543.8	4608
544.0	4622
544.2	4639
544.4	4673
544.6	4698
544.8	4705
545.0	4691
545.2	4663
545.4	4646
545.6	4613
545.8	4598
546.0	4567
546.2	4573
546.4	4584
546.6	4597
546.8	4564
547.0	4568
547.2	4531
547.4	4513
547.6	4524
547.8	4565
548.0	4578
548.2	4604
548.4	4581
548.6	4529
548.8	4497
549.0	4509
549.2	4504
549.4	4524
549.6	4532
549.8	4494
550.0	4463
550.2	4461
550.4	4432
550.6	4447
550.8	4425
551.0	4409
551.2	4383
551.4	4397
551.6	4381
551.8	4409
552.0	4383
552.2	4397
552.4	4378
552.6	4357
552.8	4345
553.0	4350
553.2	4359
553.4	4367
553.6	4351
553.8	4319
554.0	4293
554.2	4318
554.4	4337
554.6	4333
554.8	4303
555.0	4269
555.2	4223
555.4	4235
555.6	4220
555.8	4198
556.0	4176
556.2	4182
556.4	4175
556.6	4188
556.8	4186
557.0	4161
557.2	4110
557.4	4115
557.6	4139
557.8	4133
558.0	4117
558.2	4121
558.4	4094
558.6	4088
558.8	4069
559.0	4004
559.2	3948
559.4	3937
559.6	3961
559.8	3964
560.0	3946
560.2	3937
560.4	3932
560.6	3930
560.8	3925
561.0	3915
561.2	3885
561.4	3874
561.6	3883
561.8	3859
562.0	3832
562.2	3814
562.4	3807
562.6	3807
562.8	3807
563.0	3821
563.2	3819
563.4	3768
563.6	3747
563.8	3739
564.0	3677
564.2	3683
564.4	3682
564.6	3674
564.8	3713
565.0	3739
565.2	3711
565.4	3691
565.6	3665
565.8	3624
566.0	3625
566.2	3596
566.4	3588
566.6	3550
566.8	3549
567.0	3542
567.2	3563
567.4	3578
567.6	3568
567.8	3528
568.0	3486
568.2	3470
568.4	3463
568.6	3490
568.8	3498
569.0	3490
569.2	3461
569.4	3446
569.6	3464
569.8	3481
570.0	3451
570.2	3372
570.4	3336
570.6	3331
570.8	3385
571.0	3420
571.2	3376
571.4	3314
571.6	3287
571.8	3267
572.0	3273
572.2	3271
572.4	3255
572.6	3276
572.8	3307
573.0	3304
573.2	3290
573.4	3261
573.6	3236
573.8	3220
574.0	3226
574.2	3217
574.4	3220
574.6	3221
574.8	3201
575.0	3221
575.2	3226
575.4	3244
575.6	3252
575.8	3231
576.0	3174
576.2	3161
576.4	3109
576.6	3105
576.8	3094
577.0	3114
577.2	3117
577.4	3121
577.6	3102
577.8	3102
578.0	3081
578.2	3057
578.4	3050
578.6	3019
578.8	2994
579.0	2999
579.2	3054
579.4	3047
579.6	3073
579.8	3056
580.0	3035
580.2	3002
580.4	3027
580.6	2972
580.8	2936
581.0	2912
581.2	2906
581.4	2889
581.6	2890
581.8	2859
582.0	2859
582.2	2870
582.4	2857
582.6	2847
582.8	2835
583.0	2833
583.2	2817
583.4	2816
583.6	2791
583.8	2768
584.0	2762
584.2	2807
584.4	2764
584.6	2748
584.8	2735
585.0	2727
585.2	2758
585.4	2796
585.6	2783
585.8	2788
586.0	2753
586.2	2745
586.4	2745
586.6	2712
586.8	2714
587.0	2727
587.2	2690
587.4	2683
587.6	2660
587.8	2651
588.0	2663
588.2	2661
588.4	2663
588.6	2641
588.8	2605
589.0	2601
589.2	2600
589.4	2603
589.6	2641
589.8	2643
590.0	2616
590.2	2588
590.4	2563
590.6	2532
590.8	2505
591.0	2491
591.2	2500
591.4	2517
591.6	2540
591.8	2528
592.0	2489
592.2	2447
592.4	2426
592.6	2411
592.8	2409
593.0	2383
593.2	2376
593.4	2372
593.6	2387
593.8	2393
594.0	2423
594.2	2381
594.4	2362
594.6	2358
594.8	2363
595.0	2348
595.2	2330
595.4	2286
595.6	2278
595.8	2287
596.0	2325
596.2	2313
596.4	2268
596.6	2242
596.8	2234
597.0	2234
597.2	2265
597.4	2254
597.6	2263
597.8	2245
598.0	2245
598.2	2232
598.4	2219
598.6	2195
598.8	2191
599.0	2156
599.2	2160
599.4	2160
599.6	2177
599.8	2191
600.0	2195
600.2	2173
600.4	2161
600.6	2107
600.8	2075
601.0	2069
601.2	2081
601.4	2095
601.6	2112
601.8	2097
602.0	2077
602.2	2035
602.4	1997
602.6	1971
602.8	1944
603.0	1950
603.2	1977
603.4	1995
603.6	1990
603.8	2004
604.0	1979
604.2	1966
604.4	1939
604.6	1920
604.8	1901
605.0	1914
605.2	1931
605.4	1950
605.6	1933
605.8	1917
606.0	1890
606.2	1863
606.4	1852
606.6	1834
606.8	1832
607.0	1840
607.2	1835
607.4	1845
607.6	1863
607.8	1856
608.0	1869
608.2	1851
608.4	1815
608.6	1804
608.8	1795
609.0	1765
609.2	1765
609.4	1744
609.6	1743
609.8	1744
610.0	1738
610.2	1715
610.4	1712
610.6	1702
610.8	1696
611.0	1680
611.2	1707
611.4	1703
611.6	1705
611.8	1683
612.0	1654
612.2	1650
612.4	1677
612.6	1682
612.8	1682
613.0	1658
613.2	1639
613.4	1626
613.6	1615
613.8	1613
614.0	1602
614.2	1591
614.4	1583
614.6	1587
614.8	1593
615.0	1578
615.2	1561
615.4	1552
615.6	1546
615.8	1541
616.0	1529
616.2	1506
616.4	1508
616.6	1529
616.8	1547
617.0	1557
617.2	1539
617.4	1521
617.6	1521
617.8	1512
618.0	1506
618.2	1490
618.4	1447
618.6	1420
618.8	1408
619.0	1401
619.2	1405
619.4	1407
619.6	1399
619.8	1407
620.0	1399
620.2	1391
620.4	1381
620.6	1376
620.8	1365
621.0	1365
621.2	1359
621.4	1354
621.6	1365
621.8	1374
622.0	1363
622.2	1363
622.4	1347
622.6	1327
622.8	1320
623.0	1306
623.2	1295
623.4	1292
623.6	1291
623.8	1264
624.0	1265
624.2	1255
624.4	1270
624.6	1271
624.8	1265
625.0	1229
625.2	1230
625.4	1210
625.6	1213
625.8	1199
626.0	1189
626.2	1193
626.4	1210
626.6	1216
626.8	1208
627.0	1179
627.2	1169
627.4	1153
627.6	1137
627.8	1133
628.0	1120
628.2	1118
628.4	1125
628.6	1123
628.8	1113
629.0	1095
629.2	1093
629.4	1087
629.6	1076
629.8	1071
630.0	1075
630.2	1079
630.4	1069
630.6	1064
630.8	1045
631.0	1024
631.2	1025
631.4	1021
631.6	1011
631.8	1028
632.0	1039
632.2	1035
632.4	1028
632.6	1008
632.8	983.0
633.0	968.4
633.2	954.6
633.4	947.3
633.6	961.5
633.8	994.0
634.0	1004
634.2	996.0
634.4	980.2
634.6	966.3
634.8	952.0
635.0	955.9
635.2	944.2
635.4	921.1
635.6	920.5
635.8	914.0
636.0	906.7
636.2	903.0
636.4	900.7
636.6	903.9
636.8	904.9
637.0	898.6
637.2	897.0
637.4	876.8
637.6	886.8
637.8	888.5
638.0	882.0
638.2	867.8
638.4	853.4
638.6	840.1
638.8	857.8
639.0	856.8
639.2	848.0
639.4	836.2
639.6	818.8
639.8	805.4
640.0	791.6
640.2	785.1
640.4	784.1
640.6	794.0
640.8	802.6
641.0	799.5
641.2	786.6
641.4	778.3
641.6	768.6
641.8	758.7
642.0	752.2
642.2	753.5
642.4	752.5
642.6	754.1
642.8	747.3
643.0	739.2
643.2	732.4
643.4	738.3
643.6	748.2
643.8	763.2
644.0	744.4
644.2	734.8
644.4	725.6
644.6	722.0
644.8	726.7
645.0	728.1
645.2	706.3
645.4	692.6
645.6	683.7
645.8	690.5
646.0	683.2
646.2	684.1
646.4	679.2
646.6	674.0
646.8	655.3
647.0	655.0
647.2	646.8
647.4	639.6
647.6	631.9
647.8	633.5
648.0	632.4
648.2	648.0
648.4	659.0
648.6	637.4
648.8	620.3
649.0	603.3
649.2	597.2
649.4	603.8
649.6	621.3
649.8	624.6
650.0	614.3
650.2	596.5
650.4	564.8
650.6	554.6
650.8	565.0
651.0	590.3
651.2	587.2
651.4	580.9
651.6	576.6
651.8	561.5
652.0	560.2
652.2	557.1
652.4	545.9
652.6	547.0
652.8	556.7
653.0	545.9
653.2	548.7
653.4	541.4
653.6	539.8
653.8	539.6
654.0	536.6
654.2	537.0
654.4	530.4
654.6	534.0
654.8	541.1
655.0	530.0
655.2	523.7
655.4	519.4
655.6	508.6
655.8	507.1
656.0	509.2
656.2	491.6
656.4	484.8
656.6	476.7
656.8	465.0
657.0	475.1
657.2	478.5
657.4	480.8
657.6	507.1
657.8	510.4
658.0	488.7
658.2	486.5
658.4	461.9
658.6	454.2
658.8	462.2
659.0	448.7
659.2	444.5
659.4	439.3
659.6	439.1
659.8	447.4
660.0	456.6
660.2	456.3
660.4	464.5
660.6	446.1
660.8	436.8
661.0	427.9
661.2	429.1
661.4	430.1
661.6	438.7
661.8	425.9
662.0	424.0
662.2	418.6
662.4	416.7
662.6	411.7
662.8	411.7
663.0	405.2
663.2	406.4
663.4	400.1
663.6	398.1
663.8	394.8
664.0	400.6
664.2	405.4
664.4	397.4
664.6	389.9
664.8	372.5
665.0	363.5
665.2	368.8
665.4	369.6
665.6	367.9
665.8	377.9
666.0	370.5
666.2	365.7
666.4	364.9
666.6	351.0
666.8	339.9
667.0	349.6
667.2	352.6
667.4	355.3
667.6	363.7
667.8	354.2
668.0	342.6
668.2	346.1
668.4	346.8
668.6	346.8
668.8	350.0
669.0	344.1
669.2	345.5
669.4	342.6
669.6	334.9
669.8	322.1
670.0	319.8
670.2	317.5
670.4	333.2
670.6	338.4
670.8	344.4
671.0	325.8
671.2	311.2
671.4	294.5
671.6	283.6
671.8	285.9
672.0	300.2
672.2	299.2
672.4	312.6
672.6	307.3
672.8	301.4
673.0	302.3
673.2	302.0
673.4	300.6
673.6	305.5
673.8	290.2
674.0	283.2
674.2	283.6
674.4	286.6
674.6	290.0
674.8	292.1
675.0	285.5
675.2	274.3
675.4	271.7
675.6	267.5
675.8	269.1
676.0	270.7
676.2	267.6
676.4	261.1
676.6	263.7
676.8	260.1
677.0	260.3
677.2	251.5
677.4	248.6
677.6	248.7
677.8	252.4
678.0	252.5
678.2	253.9
678.4	246.9
678.6	245.0
678.8	240.3
679.0	239.2
679.2	243.7
679.4	248.9
679.6	245.8
679.8	245.8
680.0	245.8
680.2	247.9
680.4	249.3
680.6	244.5
680.8	233.7
681.0	231.4
681.2	235.5
681.4	231.3
681.6	230.6
681.8	223.4
682.0	221.2
682.2	224.2
682.4	225.2
682.6	223.5
682.8	218.6
683.0	219.6
683.2	223.4
683.4	225.4
683.6	215.8
683.8	210.0
684.0	200.3
684.2	211.4
684.4	215.9
684.6	222.8
684.8	220.9
685.0	214.5
685.2	208.4
685.4	206.9
685.6	202.9
685.8	205.3
686.0	205.9
686.2	206.6
686.4	212.5
686.6	213.9
686.8	210.1
687.0	207.6
687.2	207.0
687.4	207.2
687.6	211.8
687.8	216.2
688.0	215.6
688.2	216.8
688.4	217.2
688.6	207.9
688.8	201.5
689.0	200.5
689.2	202.0
689.4	206.5
689.6	205.9
689.8	204.5
690.0	201.6
690.2	198.6
690.4	198.1
690.6	197.3
690.8	187.1
691.0	182.3
691.2	181.9
691.4	184.6
691.6	187.9
691.8	189.7
692.0	188.3
692.2	181.0
692.4	182.5
692.6	186.6
692.8	186.5
693.0	193.5
693.2	201.0
693.4	195.3
693.6	190.3
693.8	186.4
694.0	181.2
694.2	179.8
694.4	180.5
694.6	181.8
694.8	182.9
695.0	188.0
695.2	190.3
695.4	186.4
695.6	183.7
695.8	180.0
696.0	176.5
696.2	177.2
696.4	177.8
696.6	176.5
696.8	174.1
697.0	173.9
697.2	169.6
697.4	167.3
697.6	163.9
697.8	168.8
698.0	172.3
698.2	179.5
698.4	173.4
698.6	168.2
698.8	161.2
699.0	165.4
699.2	162.4
699.4	169.7
699.6	168.1
699.8	171.1
700.0	167.7
700.2	166.0
700.4	159.6
700.6	160.9
700.8	154.5
701.0	153.2
701.2	154.7
701.4	162.4
701.6	161.6
701.8	161.2
702.0	153.2
702.2	151.1
702.4	158.2
702.6	166.2
702.8	165.5
703.0	162.3
703.2	149.4
703.4	149.4
703.6	154.3
703.8	155.4
704.0	162.9
704.2	163.6
704.4	158.2
704.6	157.2
704.8	156.9
705.0	158.8
705.2	160.9
705.4	155.7
705.6	147.9
705.8	145.3
706.0	146.5
706.2	157.2
706.4	154.0
706.6	147.2
706.8	143.9
707.0	145.4
707.2	146.0
707.4	151.4
707.6	146.6
707.8	142.9
708.0	137.7
708.2	135.3
708.4	141.8
708.6	146.0
708.8	141.3
709.0	137.8
709.2	131.6
709.4	136.1
709.6	146.8
709.8	152.8
710.0	149.1
710.2	146.9
710.4	144.4
710.6	146.2
710.8	142.7
711.0	141.8
711.2	136.3
711.4	134.2
711.6	128.6
711.8	127.4
712.0	130.4
712.2	133.7
712.4	138.0
712.6	141.1
712.8	136.6
713.0	128.6
713.2	129.2
713.4	128.4
713.6	125.7
713.8	126.9
714.0	129.0
714.2	125.9
714.4	130.5
714.6	131.0
714.8	126.0
715.0	123.7
715.2	120.4
715.4	121.2
715.6	126.7
715.8	126.1
716.0	125.9
716.2	122.4
716.4	116.4
716.6	112.2
716.8	111.8
717.0	112.6
717.2	117.9
717.4	120.3
717.6	118.1
717.8	114.1
718.0	110.6
718.2	112.0
718.4	113.3
718.6	112.5
718.8	112.5
719.0	107.7
719.2	106.7
719.4	107.4
719.6	106.7
719.8	111.1
720.0	115.9
720.2	110.4
720.4	105.7
720.6	97.79
720.8	92.97
721.0	94.48
721.2	100.9
721.4	102.3
721.6	101.9
721.8	98.35
722.0	92.33
722.2	92.01
722.4	91.25
722.6	95.72
722.8	95.84
723.0	99.59
723.2	99.44
723.4	103.9
723.6	101.7
723.8	102.9
724.0	94.55
724.2	93.43
724.4	95.13
724.6	95.73
724.8	95.13
725.0	89.93
725.2	83.76
725.4	83.10
725.6	87.33
725.8	90.05
726.0	92.30
726.2	85.52
726.4	81.78
726.6	81.34
726.8	83.27
727.0	81.72
727.2	85.48
727.4	83.48
727.6	83.61
727.8	84.19
728.0	86.10
728.2	81.22
728.4	85.80
728.6	81.74
728.8	75.91
729.0	75.55
729.2	79.42
729.4	81.85
729.6	83.23
729.8	82.96
730.0	81.01
730.2	84.66
730.4	85.03
730.6	83.69
730.8	77.00
731.0	73.58
731.2	72.43
731.4	77.81
731.6	79.23
731.8	81.59
732.0	77.89
732.2	77.37
732.4	78.32
732.6	80.69
732.8	77.50
733.0	74.44
733.2	68.24
733.4	73.55
733.6	74.49
733.8	75.21
734.0	71.81
734.2	74.07
734.4	70.66
734.6	72.92
734.8	70.69
735.0	65.71
735.2	60.99
735.4	63.05
735.6	63.63
735.8	66.22
736.0	69.52
736.2	66.24
736.4	66.50
736.6	66.79
736.8	69.34
737.0	71.93
737.2	73.13
737.4	71.80
737.6	69.92
737.8	64.30
738.0	59.93
738.2	59.08
738.4	60.66
738.6	64.10
738.8	62.72
739.0	59.27
739.2	56.73
739.4	57.52
739.6	61.18
739.8	67.99
740.0	69.70
740.2	65.15
740.4	63.30
740.6	58.22
740.8	57.24
741.0	56.42
741.2	58.24
741.4	59.15
741.6	60.44
741.8	58.27
742.0	59.85
742.2	55.93
742.4	58.76
742.6	58.85
742.8	54.00
743.0	52.34
743.2	52.43
743.4	54.19
743.6	59.51
743.8	60.87
744.0	57.78
744.2	55.61
744.4	53.63
744.6	51.89
744.8	52.28
745.0	53.58
745.2	53.87
745.4	54.81
745.6	53.01
745.8	50.00
746.0	51.26
746.2	53.41
746.4	54.13
746.6	56.00
746.8	53.83
747.0	53.34
747.2	54.86
747.4	57.27
747.6	56.02
747.8	55.05
748.0	50.56
748.2	47.91
748.4	43.82
748.6	45.73
748.8	44.54
749.0	46.75
749.2	53.93
749.4	55.67
749.6	51.78
749.8	49.78
750.0	42.70
750.2	40.86
750.4	48.68
750.6	49.64
750.8	47.60
751.0	46.36
751.2	47.34
751.4	48.66
751.6	45.59
751.8	45.30
752.0	41.67
752.2	40.43
752.4	45.13
752.6	48.44
752.8	44.04
753.0	43.21
753.2	39.47
753.4	42.04
753.6	45.40
753.8	47.35
754.0	47.23
754.2	42.78
754.4	38.91
754.6	43.26
754.8	46.04
755.0	46.22
755.2	46.45
755.4	45.09
755.6	43.30
755.8	43.14
756.0	44.06
756.2	43.45
756.4	44.86
756.6	50.43
756.8	49.03
757.0	45.80
757.2	44.01
757.4	39.94
757.6	37.28
757.8	39.85
758.0	39.59
758.2	39.57
758.4	42.02
758.6	43.02
758.8	45.28
759.0	47.67
759.2	51.17
759.4	48.12
759.6	47.88
759.8	45.51
760.0	44.72
760.2	43.84
760.4	45.81
760.6	44.74
760.8	48.94
761.0	46.55
761.2	43.22
761.4	41.67
761.6	41.71
761.8	44.05
762.0	47.16
762.2	42.48
762.4	40.83
762.6	40.06
762.8	40.64
763.0	42.40
763.2	42.75
763.4	40.97
763.6	40.15
763.8	39.78
764.0	39.64
764.2	40.65
764.4	42.92
764.6	43.99
764.8	41.24
765.0	45.01
765.2	42.87
765.4	43.77
765.6	44.74
765.8	44.04
766.0	39.48
766.2	38.33
766.4	33.55
766.6	31.61
766.8	33.11
767.0	34.61
767.2	36.82
767.4	36.79
767.6	39.01
767.8	36.17
768.0	34.74
768.2	34.69
768.4	37.35
768.6	37.59
768.8	39.57
769.0	38.86
769.2	37.15
769.4	35.46
769.6	35.52
769.8	35.47
770.0	37.14
770.2	39.02
770.4	37.00
770.6	33.98
770.8	33.04
771.0	31.64
771.2	31.11
771.4	30.55
771.6	29.01
771.8	29.32
772.0	30.07
772.2	29.42
772.4	28.92
772.6	29.08
772.8	27.56
773.0	26.74
773.2	24.37
773.4	23.95
773.6	25.59
773.8	27.45
774.0	28.59
774.2	28.42
774.4	28.16
774.6	30.53
774.8	30.30
775.0	30.25
775.2	27.71
775.4	23.52
775.6	22.99
775.8	28.31
776.0	29.75
776.2	31.96
776.4	30.04
776.6	26.43
776.8	23.93
777.0	24.93
777.2	25.64
777.4	26.91
777.6	28.36
777.8	28.24
778.0	27.60
778.2	26.30
778.4	26.49
778.6	26.89
778.8	26.46
779.0	24.96
779.2	23.55
779.4	22.17
779.6	19.77
779.8	22.50
780.0	24.95
780.2	26.17
780.4	25.08
780.6	22.85
780.8	18.89
781.0	19.43
781.2	22.06
781.4	22.81
781.6	20.89
781.8	21.06
782.0	22.13
782.2	21.01
782.4	22.05
782.6	22.71
782.8	22.86
783.0	24.25
783.2	24.90
783.4	22.63
783.6	21.09
783.8	20.17
784.0	21.14
784.2	23.09
784.4	23.82
784.6	22.99
784.8	23.56
785.0	23.72
785.2	24.40
785.4	24.07
785.6	23.57
785.8	22.02
786.0	24.30
786.2	27.70
786.4	29.06
786.6	27.78
786.8	24.92
787.0	24.28
787.2	24.33
787.4	25.06
787.6	21.99
787.8	22.69
788.0	23.50
788.2	24.21
788.4	23.62
788.6	24.43
788.8	20.13
789.0	22.01
789.2	24.41
789.4	25.18
789.6	26.54
789.8	32.12
790.0	32.54
790.2	31.12
790.4	28.24
790.6	22.76
790.8	22.38
791.0	24.43
791.2	25.12
791.4	23.25
791.6	23.04
791.8	17.44
792.0	19.23
792.2	20.46
792.4	22.31
792.6	24.09
792.8	27.61
793.0	24.89
793.2	26.01
793.4	25.65
793.6	23.42
793.8	23.14
794.0	22.27
794.2	19.77
794.4	18.60
794.6	18.58
794.8	21.32
795.0	27.03
795.2	28.20
795.4	26.68
795.6	21.80
795.8	18.76
796.0	19.31
796.2	21.48
796.4	24.05
796.6	23.41
796.8	24.13
797.0	25.97
797.2	25.01
797.4	26.07
797.6	27.67
797.8	25.65
798.0	26.20
798.2	26.96
798.4	23.75
798.6	24.58
798.8	23.57
799.0	22.06
799.2	21.22
799.4	21.61
799.6	22.20
799.8	23.82
800.0	26.84

