Sample:	'20211010A(EM)
File name:	g-cds-cho 1;15 637v.FDS
Run date:	'15:10:32, 03/22/2023
Operator:	Administrator
Comment:	'

Instrument
Model:	F-4700 FL Spectrophotometer
Serial number:	2019-001
ROM Version:	5J24010 00

Instrument parameters
Measurement type:	Wavelength scan
Scan mode:	Emission
Data mode:	Fluorescence
EX WL:	350.0 nm
EM  Start WL:	370.0 nm
EM  End WL:	800.0 nm
Scan speed:	1200 nm/min
Delay:	0.0 s
EX Slit:	10.0 nm
EM Slit:	10.0 nm
PMT Voltage:	637 V
Response:	0.002 s
Corrected spectra:	Off
Shutter control:	On

Processing performed
Savitsky-Golay smoothed
Smoothing order:	3
Number of points:	7
Number of times:	1

Peak integration
Integration method:	Rectangular
Sensitivity:	1
Threshold:	1.000

Peaks
No.	Start(nm)	Apex(nm)	End(nm)	Height(Data)	Valley(nm)	Valley(Data)
1	370.0	373.0	373.6	7.831	373.6	6.704
2	373.6	375.0	375.8	7.813	375.8	6.465
3	375.8	376.4	378.4	7.904	378.4	6.143
4	378.4	379.0	379.6	9.143	379.6	5.902
5	379.6	382.0	385.2	8.744	385.2	7.068
6	385.2	386.8	388.6	9.153	388.6	8.050
7	388.6	389.2	390.2	10.50	390.2	8.466
8	390.2	392.8	395.0	10.69	395.0	8.995
9	395.0	398.0	399.0	13.77	399.0	10.90
10	399.0	404.6	405.2	18.91	405.2	17.40
11	405.2	484.4	486.4	9387	486.4	9327
12	486.4	488.0	580.2	9365	580.2	1387
13	580.2	581.0	659.6	1429	659.6	161.5
14	659.6	660.4	672.2	168.9	672.2	110.1
15	672.2	673.0	677.0	116.8	677.0	95.57
16	677.0	677.8	681.0	101.1	681.0	88.26
17	681.0	681.6	682.8	94.49	682.8	83.75
18	682.8	683.6	684.4	87.46	684.4	81.19
19	684.4	685.2	686.8	87.05	686.8	78.53
20	686.8	687.2	689.4	83.36	689.4	76.39
21	689.4	689.8	690.6	79.90	690.6	72.82
22	690.6	692.0	702.2	76.09	702.2	56.54
23	702.2	702.6	703.4	59.55	703.4	56.16
24	703.4	704.0	705.2	57.79	705.2	54.52
25	705.2	705.8	710.4	56.22	710.4	49.88
26	710.4	711.0	711.6	53.08	711.6	47.98
27	711.6	712.4	724.0	53.45	724.0	36.32
28	724.0	724.8	725.6	38.69	725.6	32.64
29	725.6	727.0	727.8	37.77	727.8	29.76
30	727.8	729.2	731.2	35.24	731.2	29.74
31	731.2	732.8	734.2	34.01	734.2	29.44
32	734.2	735.0	736.8	33.16	736.8	26.89
33	736.8	737.6	738.4	30.22	738.4	26.02
34	738.4	739.4	742.0	29.35	742.0	24.50
35	742.0	743.6	744.8	27.19	744.8	22.42
36	744.8	745.6	749.2	23.92	749.2	19.76
37	749.2	750.0	753.4	22.10	753.4	18.72
38	753.4	754.0	755.4	20.51	755.4	19.24
39	755.4	755.8	757.6	21.06	757.6	19.04
40	757.6	759.0	759.8	21.24	759.8	19.44
41	759.8	760.8	761.6	22.04	761.6	19.15
42	761.6	762.0	763.2	20.73	763.2	19.58
43	763.2	764.0	764.6	20.70	764.6	18.49
44	764.6	765.6	767.4	20.81	767.4	17.72
45	767.4	768.4	771.6	18.80	771.6	14.16
46	771.6	774.2	777.0	15.41	777.0	11.14
47	777.0	778.8	779.4	12.38	779.4	11.01
48	779.4	780.6	781.2	13.56	781.2	11.77
49	781.2	783.4	784.4	14.92	784.4	10.61
50	784.4	786.2	787.0	13.02	787.0	11.53
51	787.0	789.8	792.8	14.30	792.8	12.34
52	792.8	793.4	795.0	13.54	795.0	12.10
53	795.0	796.0	796.8	13.58	796.8	11.67
54	796.8	798.2	800.0	13.60	800.0	10.11

Data points
nm	Data
370.0	6.592
370.2	6.719
370.4	6.563
370.6	6.331
370.8	6.670
371.0	6.122
371.2	6.349
371.4	6.762
371.6	6.139
371.8	6.552
372.0	6.968
372.2	6.658
372.4	6.924
372.6	7.408
372.8	7.568
373.0	7.831
373.2	7.320
373.4	7.212
373.6	6.704
373.8	6.761
374.0	6.749
374.2	6.745
374.4	6.996
374.6	7.158
374.8	7.368
375.0	7.813
375.2	7.562
375.4	7.069
375.6	6.883
375.8	6.465
376.0	6.986
376.2	7.409
376.4	7.904
376.6	7.293
376.8	6.905
377.0	6.535
377.2	6.482
377.4	6.559
377.6	6.914
377.8	6.514
378.0	6.605
378.2	6.367
378.4	6.143
378.6	7.510
378.8	8.650
379.0	9.143
379.2	8.944
379.4	7.426
379.6	5.902
379.8	6.045
380.0	5.948
380.2	6.656
380.4	7.662
380.6	7.588
380.8	7.758
381.0	7.391
381.2	6.266
381.4	6.364
381.6	7.799
381.8	8.546
382.0	8.744
382.2	8.571
382.4	7.771
382.6	7.564
382.8	8.308
383.0	8.521
383.2	8.054
383.4	8.102
383.6	7.966
383.8	7.921
384.0	7.723
384.2	7.736
384.4	7.412
384.6	7.471
384.8	7.523
385.0	7.087
385.2	7.068
385.4	7.628
385.6	7.980
385.8	8.439
386.0	8.728
386.2	8.581
386.4	8.999
386.6	9.148
386.8	9.153
387.0	8.882
387.2	8.409
387.4	8.251
387.6	8.522
387.8	8.610
388.0	8.963
388.2	8.452
388.4	8.096
388.6	8.050
388.8	8.506
389.0	9.276
389.2	10.50
389.4	10.44
389.6	10.23
389.8	9.251
390.0	8.664
390.2	8.466
390.4	8.865
390.6	8.942
390.8	9.271
391.0	9.651
391.2	9.325
391.4	9.040
391.6	9.312
391.8	9.233
392.0	9.553
392.2	9.712
392.4	9.369
392.6	9.686
392.8	10.69
393.0	10.61
393.2	10.37
393.4	9.934
393.6	9.949
393.8	10.16
394.0	10.50
394.2	10.40
394.4	10.21
394.6	10.16
394.8	9.705
395.0	8.995
395.2	9.392
395.4	10.18
395.6	10.86
395.8	11.36
396.0	11.23
396.2	10.57
396.4	11.17
396.6	11.20
396.8	11.22
397.0	10.47
397.2	10.90
397.4	11.48
397.6	12.53
397.8	13.14
398.0	13.77
398.2	13.20
398.4	12.62
398.6	12.15
398.8	11.07
399.0	10.90
399.2	11.53
399.4	12.40
399.6	12.14
399.8	12.36
400.0	11.76
400.2	12.67
400.4	13.49
400.6	14.14
400.8	14.48
401.0	14.74
401.2	14.63
401.4	15.11
401.6	15.10
401.8	15.15
402.0	15.86
402.2	16.10
402.4	16.15
402.6	15.35
402.8	15.10
403.0	15.38
403.2	16.08
403.4	16.66
403.6	16.79
403.8	16.15
404.0	15.92
404.2	16.99
404.4	18.22
404.6	18.91
404.8	18.67
405.0	18.04
405.2	17.40
405.4	17.90
405.6	17.87
405.8	17.50
406.0	18.00
406.2	19.81
406.4	21.90
406.6	22.72
406.8	23.29
407.0	22.81
407.2	21.49
407.4	20.96
407.6	20.53
407.8	21.21
408.0	23.96
408.2	24.24
408.4	24.29
408.6	22.56
408.8	21.42
409.0	22.54
409.2	24.91
409.4	25.42
409.6	27.82
409.8	27.78
410.0	28.48
410.2	28.84
410.4	29.55
410.6	30.19
410.8	30.94
411.0	31.07
411.2	31.24
411.4	31.67
411.6	32.66
411.8	33.63
412.0	34.15
412.2	35.69
412.4	36.62
412.6	38.44
412.8	39.26
413.0	39.12
413.2	39.79
413.4	40.45
413.6	40.56
413.8	41.27
414.0	42.16
414.2	42.93
414.4	43.49
414.6	43.14
414.8	45.16
415.0	46.89
415.2	49.49
415.4	51.62
415.6	52.87
415.8	54.23
416.0	57.77
416.2	58.52
416.4	59.56
416.6	59.06
416.8	58.63
417.0	60.59
417.2	64.43
417.4	68.02
417.6	71.73
417.8	73.11
418.0	74.12
418.2	76.21
418.4	78.78
418.6	79.94
418.8	81.33
419.0	82.74
419.2	87.26
419.4	91.96
419.6	95.63
419.8	95.63
420.0	96.04
420.2	96.15
420.4	100.4
420.6	103.1
420.8	107.4
421.0	111.0
421.2	115.7
421.4	118.8
421.6	123.8
421.8	125.3
422.0	125.6
422.2	128.6
422.4	132.2
422.6	138.4
422.8	146.9
423.0	153.2
423.2	156.2
423.4	161.0
423.6	165.7
423.8	172.3
424.0	177.4
424.2	185.1
424.4	192.4
424.6	197.3
424.8	203.9
425.0	208.2
425.2	213.2
425.4	222.4
425.6	227.6
425.8	230.0
426.0	238.0
426.2	246.4
426.4	256.9
426.6	269.4
426.8	277.2
427.0	281.3
427.2	293.1
427.4	303.4
427.6	312.1
427.8	320.5
428.0	327.1
428.2	338.3
428.4	354.0
428.6	365.4
428.8	378.5
429.0	388.2
429.2	399.7
429.4	419.3
429.6	435.5
429.8	444.6
430.0	456.0
430.2	466.9
430.4	482.6
430.6	502.1
430.8	520.4
431.0	535.9
431.2	545.0
431.4	561.1
431.6	579.3
431.8	597.6
432.0	615.7
432.2	635.6
432.4	647.0
432.6	671.7
432.8	691.4
433.0	707.8
433.2	726.0
433.4	742.1
433.6	761.5
433.8	782.4
434.0	801.2
434.2	826.6
434.4	854.4
434.6	877.0
434.8	903.8
435.0	919.7
435.2	941.5
435.4	974.2
435.6	1004
435.8	1027
436.0	1059
436.2	1085
436.4	1108
436.6	1137
436.8	1154
437.0	1167
437.2	1192
437.4	1223
437.6	1257
437.8	1301
438.0	1333
438.2	1378
438.4	1408
438.6	1441
438.8	1470
439.0	1499
439.2	1521
439.4	1555
439.6	1584
439.8	1625
440.0	1671
440.2	1718
440.4	1758
440.6	1786
440.8	1820
441.0	1844
441.2	1880
441.4	1925
441.6	1971
441.8	2021
442.0	2068
442.2	2087
442.4	2114
442.6	2142
442.8	2172
443.0	2221
443.2	2257
443.4	2291
443.6	2333
443.8	2380
444.0	2431
444.2	2486
444.4	2528
444.6	2564
444.8	2601
445.0	2641
445.2	2679
445.4	2727
445.6	2779
445.8	2835
446.0	2873
446.2	2917
446.4	2944
446.6	3000
446.8	3044
447.0	3103
447.2	3138
447.4	3173
447.6	3201
447.8	3241
448.0	3289
448.2	3345
448.4	3386
448.6	3419
448.8	3471
449.0	3506
449.2	3561
449.4	3623
449.6	3669
449.8	3719
450.0	3771
450.2	3808
450.4	3833
450.6	3879
450.8	3911
451.0	3956
451.2	3999
451.4	4050
451.6	4086
451.8	4144
452.0	4205
452.2	4248
452.4	4274
452.6	4305
452.8	4319
453.0	4369
453.2	4420
453.4	4481
453.6	4530
453.8	4583
454.0	4617
454.2	4663
454.4	4687
454.6	4750
454.8	4804
455.0	4853
455.2	4896
455.4	4947
455.6	4986
455.8	5042
456.0	5096
456.2	5128
456.4	5166
456.6	5225
456.8	5264
457.0	5310
457.2	5342
457.4	5361
457.6	5399
457.8	5444
458.0	5471
458.2	5528
458.4	5583
458.6	5625
458.8	5698
459.0	5742
459.2	5772
459.4	5834
459.6	5881
459.8	5924
460.0	5981
460.2	6030
460.4	6058
460.6	6116
460.8	6158
461.0	6184
461.2	6200
461.4	6238
461.6	6272
461.8	6335
462.0	6403
462.2	6445
462.4	6489
462.6	6539
462.8	6593
463.0	6638
463.2	6699
463.4	6720
463.6	6733
463.8	6766
464.0	6805
464.2	6850
464.4	6916
464.6	6950
464.8	6984
465.0	7021
465.2	7055
465.4	7107
465.6	7156
465.8	7212
466.0	7250
466.2	7259
466.4	7271
466.6	7321
466.8	7364
467.0	7416
467.2	7454
467.4	7497
467.6	7528
467.8	7580
468.0	7606
468.2	7633
468.4	7667
468.6	7706
468.8	7722
469.0	7733
469.2	7745
469.4	7790
469.6	7853
469.8	7911
470.0	7963
470.2	7982
470.4	8010
470.6	8029
470.8	8053
471.0	8075
471.2	8118
471.4	8143
471.6	8190
471.8	8216
472.0	8237
472.2	8255
472.4	8288
472.6	8326
472.8	8370
473.0	8431
473.2	8450
473.4	8480
473.6	8480
473.8	8495
474.0	8520
474.2	8569
474.4	8601
474.6	8633
474.8	8641
475.0	8667
475.2	8702
475.4	8725
475.6	8746
475.8	8751
476.0	8772
476.2	8807
476.4	8838
476.6	8851
476.8	8865
477.0	8870
477.2	8884
477.4	8897
477.6	8920
477.8	8954
478.0	8982
478.2	8981
478.4	8984
478.6	9000
478.8	9033
479.0	9093
479.2	9119
479.4	9118
479.6	9098
479.8	9100
480.0	9115
480.2	9145
480.4	9159
480.6	9173
480.8	9187
481.0	9221
481.2	9254
481.4	9248
481.6	9226
481.8	9220
482.0	9234
482.2	9236
482.4	9275
482.6	9307
482.8	9331
483.0	9360
483.2	9357
483.4	9312
483.6	9309
483.8	9326
484.0	9342
484.2	9365
484.4	9387
484.6	9370
484.8	9366
485.0	9382
485.2	9368
485.4	9367
485.6	9378
485.8	9358
486.0	9352
486.2	9354
486.4	9327
486.6	9334
486.8	9339
487.0	9347
487.2	9341
487.4	9345
487.6	9347
487.8	9358
488.0	9365
488.2	9359
488.4	9348
488.6	9360
488.8	9360
489.0	9355
489.2	9336
489.4	9306
489.6	9298
489.8	9297
490.0	9279
490.2	9260
490.4	9251
490.6	9240
490.8	9245
491.0	9256
491.2	9250
491.4	9228
491.6	9233
491.8	9223
492.0	9220
492.2	9229
492.4	9203
492.6	9171
492.8	9153
493.0	9149
493.2	9148
493.4	9139
493.6	9096
493.8	9077
494.0	9064
494.2	9059
494.4	9055
494.6	9049
494.8	9009
495.0	8990
495.2	8987
495.4	8973
495.6	8973
495.8	8976
496.0	8963
496.2	8951
496.4	8942
496.6	8911
496.8	8900
497.0	8860
497.2	8845
497.4	8824
497.6	8791
497.8	8760
498.0	8743
498.2	8724
498.4	8703
498.6	8669
498.8	8639
499.0	8606
499.2	8574
499.4	8567
499.6	8554
499.8	8539
500.0	8551
500.2	8541
500.4	8518
500.6	8497
500.8	8467
501.0	8436
501.2	8427
501.4	8414
501.6	8385
501.8	8344
502.0	8307
502.2	8265
502.4	8254
502.6	8250
502.8	8231
503.0	8189
503.2	8155
503.4	8116
503.6	8087
503.8	8067
504.0	8056
504.2	8008
504.4	7978
504.6	7975
504.8	7962
505.0	7974
505.2	7968
505.4	7930
505.6	7898
505.8	7869
506.0	7812
506.2	7790
506.4	7743
506.6	7708
506.8	7679
507.0	7668
507.2	7647
507.4	7653
507.6	7625
507.8	7588
508.0	7567
508.2	7534
508.4	7499
508.6	7472
508.8	7437
509.0	7401
509.2	7399
509.4	7377
509.6	7337
509.8	7298
510.0	7249
510.2	7211
510.4	7173
510.6	7157
510.8	7146
511.0	7143
511.2	7121
511.4	7116
511.6	7081
511.8	7041
512.0	7007
512.2	6953
512.4	6907
512.6	6880
512.8	6859
513.0	6842
513.2	6811
513.4	6786
513.6	6774
513.8	6774
514.0	6755
514.2	6734
514.4	6677
514.6	6621
514.8	6573
515.0	6566
515.2	6527
515.4	6515
515.6	6500
515.8	6475
516.0	6476
516.2	6482
516.4	6437
516.6	6390
516.8	6344
517.0	6290
517.2	6260
517.4	6230
517.6	6207
517.8	6189
518.0	6180
518.2	6167
518.4	6142
518.6	6096
518.8	6055
519.0	6028
519.2	5987
519.4	5971
519.6	5958
519.8	5934
520.0	5920
520.2	5893
520.4	5852
520.6	5814
520.8	5778
521.0	5748
521.2	5741
521.4	5713
521.6	5688
521.8	5657
522.0	5639
522.2	5619
522.4	5618
522.6	5595
522.8	5559
523.0	5523
523.2	5508
523.4	5487
523.6	5475
523.8	5444
524.0	5411
524.2	5382
524.4	5369
524.6	5360
524.8	5340
525.0	5299
525.2	5250
525.4	5224
525.6	5213
525.8	5193
526.0	5182
526.2	5164
526.4	5121
526.6	5114
526.8	5097
527.0	5058
527.2	5029
527.4	5004
527.6	4976
527.8	4969
528.0	4964
528.2	4946
528.4	4912
528.6	4891
528.8	4875
529.0	4851
529.2	4832
529.4	4817
529.6	4783
529.8	4744
530.0	4733
530.2	4720
530.4	4700
530.6	4692
530.8	4662
531.0	4628
531.2	4624
531.4	4601
531.6	4573
531.8	4542
532.0	4519
532.2	4508
532.4	4510
532.6	4504
532.8	4469
533.0	4446
533.2	4426
533.4	4402
533.6	4396
533.8	4398
534.0	4362
534.2	4343
534.4	4312
534.6	4297
534.8	4270
535.0	4269
535.2	4250
535.4	4224
535.6	4196
535.8	4186
536.0	4162
536.2	4166
536.4	4148
536.6	4132
536.8	4103
537.0	4079
537.2	4079
537.4	4073
537.6	4054
537.8	4037
538.0	3999
538.2	3970
538.4	3953
538.6	3945
538.8	3926
539.0	3899
539.2	3873
539.4	3850
539.6	3840
539.8	3841
540.0	3835
540.2	3817
540.4	3790
540.6	3760
540.8	3737
541.0	3709
541.2	3694
541.4	3684
541.6	3667
541.8	3662
542.0	3663
542.2	3653
542.4	3636
542.6	3625
542.8	3612
543.0	3603
543.2	3589
543.4	3556
543.6	3517
543.8	3485
544.0	3479
544.2	3480
544.4	3472
544.6	3459
544.8	3444
545.0	3418
545.2	3404
545.4	3395
545.6	3382
545.8	3364
546.0	3343
546.2	3318
546.4	3309
546.6	3306
546.8	3306
547.0	3285
547.2	3254
547.4	3238
547.6	3212
547.8	3194
548.0	3179
548.2	3165
548.4	3148
548.6	3147
548.8	3133
549.0	3114
549.2	3107
549.4	3095
549.6	3075
549.8	3053
550.0	3037
550.2	3020
550.4	3015
550.6	3003
550.8	2977
551.0	2965
551.2	2954
551.4	2938
551.6	2924
551.8	2910
552.0	2887
552.2	2895
552.4	2890
552.6	2866
552.8	2848
553.0	2835
553.2	2818
553.4	2815
553.6	2791
553.8	2759
554.0	2751
554.2	2753
554.4	2747
554.6	2743
554.8	2734
555.0	2712
555.2	2689
555.4	2670
555.6	2649
555.8	2636
556.0	2636
556.2	2616
556.4	2597
556.6	2581
556.8	2566
557.0	2558
557.2	2557
557.4	2549
557.6	2547
557.8	2525
558.0	2504
558.2	2486
558.4	2474
558.6	2464
558.8	2456
559.0	2443
559.2	2437
559.4	2432
559.6	2420
559.8	2412
560.0	2397
560.2	2382
560.4	2373
560.6	2370
560.8	2348
561.0	2336
561.2	2317
561.4	2294
561.6	2279
561.8	2267
562.0	2261
562.2	2258
562.4	2257
562.6	2242
562.8	2236
563.0	2217
563.2	2197
563.4	2177
563.6	2168
563.8	2153
564.0	2148
564.2	2136
564.4	2112
564.6	2102
564.8	2090
565.0	2087
565.2	2075
565.4	2071
565.6	2067
565.8	2065
566.0	2056
566.2	2049
566.4	2031
566.6	2015
566.8	1998
567.0	1978
567.2	1959
567.4	1946
567.6	1945
567.8	1933
568.0	1921
568.2	1928
568.4	1920
568.6	1928
568.8	1928
569.0	1905
569.2	1885
569.4	1878
569.6	1862
569.8	1858
570.0	1851
570.2	1840
570.4	1827
570.6	1818
570.8	1808
571.0	1795
571.2	1785
571.4	1768
571.6	1760
571.8	1762
572.0	1762
572.2	1755
572.4	1748
572.6	1738
572.8	1737
573.0	1730
573.2	1720
573.4	1702
573.6	1693
573.8	1692
574.0	1694
574.2	1678
574.4	1663
574.6	1647
574.8	1642
575.0	1637
575.2	1641
575.4	1628
575.6	1616
575.8	1605
576.0	1600
576.2	1584
576.4	1585
576.6	1578
576.8	1570
577.0	1564
577.2	1557
577.4	1539
577.6	1530
577.8	1521
578.0	1513
578.2	1513
578.4	1516
578.6	1501
578.8	1485
579.0	1468
579.2	1461
579.4	1458
579.6	1449
579.8	1427
580.0	1402
580.2	1387
580.4	1390
580.6	1403
580.8	1419
581.0	1429
581.2	1421
581.4	1407
581.6	1389
581.8	1376
582.0	1374
582.2	1379
582.4	1375
582.6	1368
582.8	1355
583.0	1338
583.2	1328
583.4	1327
583.6	1324
583.8	1320
584.0	1313
584.2	1304
584.4	1306
584.6	1298
584.8	1294
585.0	1287
585.2	1283
585.4	1273
585.6	1272
585.8	1256
586.0	1241
586.2	1231
586.4	1223
586.6	1216
586.8	1225
587.0	1226
587.2	1221
587.4	1218
587.6	1202
587.8	1196
588.0	1193
588.2	1181
588.4	1172
588.6	1169
588.8	1160
589.0	1154
589.2	1154
589.4	1150
589.6	1150
589.8	1144
590.0	1137
590.2	1126
590.4	1121
590.6	1119
590.8	1119
591.0	1116
591.2	1109
591.4	1099
591.6	1089
591.8	1080
592.0	1079
592.2	1081
592.4	1070
592.6	1059
592.8	1053
593.0	1052
593.2	1051
593.4	1048
593.6	1040
593.8	1026
594.0	1022
594.2	1017
594.4	1006
594.6	999.0
594.8	995.2
595.0	989.9
595.2	987.4
595.4	986.7
595.6	984.5
595.8	977.5
596.0	974.8
596.2	963.7
596.4	956.2
596.6	954.8
596.8	951.0
597.0	949.7
597.2	953.0
597.4	946.0
597.6	938.7
597.8	927.2
598.0	918.6
598.2	919.3
598.4	924.2
598.6	922.1
598.8	913.8
599.0	904.5
599.2	896.5
599.4	888.4
599.6	884.0
599.8	872.1
600.0	866.2
600.2	866.1
600.4	866.3
600.6	862.7
600.8	858.6
601.0	851.4
601.2	847.0
601.4	846.1
601.6	843.8
601.8	846.0
602.0	837.5
602.2	831.0
602.4	824.8
602.6	818.4
602.8	814.6
603.0	811.3
603.2	809.0
603.4	809.0
603.6	808.8
603.8	806.1
604.0	800.5
604.2	789.5
604.4	786.2
604.6	785.9
604.8	780.3
605.0	775.9
605.2	767.9
605.4	763.0
605.6	756.6
605.8	755.5
606.0	749.3
606.2	748.7
606.4	747.4
606.6	742.8
606.8	732.2
607.0	723.8
607.2	720.7
607.4	722.3
607.6	723.9
607.8	722.0
608.0	720.2
608.2	715.5
608.4	712.6
608.6	706.2
608.8	697.9
609.0	692.2
609.2	687.6
609.4	687.5
609.6	685.1
609.8	683.3
610.0	681.4
610.2	677.2
610.4	669.9
610.6	668.9
610.8	663.8
611.0	659.8
611.2	655.4
611.4	646.3
611.6	641.3
611.8	639.8
612.0	638.1
612.2	640.7
612.4	639.2
612.6	633.3
612.8	627.4
613.0	627.5
613.2	626.7
613.4	628.1
613.6	626.5
613.8	620.7
614.0	617.4
614.2	611.1
614.4	610.4
614.6	612.0
614.8	611.6
615.0	604.8
615.2	603.7
615.4	594.6
615.6	587.4
615.8	582.5
616.0	579.8
616.2	579.4
616.4	581.7
616.6	581.9
616.8	576.3
617.0	568.5
617.2	568.3
617.4	568.2
617.6	560.4
617.8	553.0
618.0	547.2
618.2	545.8
618.4	555.3
618.6	562.8
618.8	557.7
619.0	549.3
619.2	542.1
619.4	539.7
619.6	532.7
619.8	528.5
620.0	519.2
620.2	516.4
620.4	519.3
620.6	522.9
620.8	514.4
621.0	510.6
621.2	508.5
621.4	509.2
621.6	508.9
621.8	506.0
622.0	502.3
622.2	499.5
622.4	496.0
622.6	490.6
622.8	492.5
623.0	486.5
623.2	486.1
623.4	483.5
623.6	473.4
623.8	469.1
624.0	473.4
624.2	469.9
624.4	472.5
624.6	469.8
624.8	463.7
625.0	460.4
625.2	455.3
625.4	450.8
625.6	450.0
625.8	450.8
626.0	451.7
626.2	450.1
626.4	446.5
626.6	442.3
626.8	436.5
627.0	434.8
627.2	427.5
627.4	419.2
627.6	415.5
627.8	419.0
628.0	421.0
628.2	424.1
628.4	420.9
628.6	412.8
628.8	406.1
629.0	404.0
629.2	400.0
629.4	405.1
629.6	405.9
629.8	405.8
630.0	403.4
630.2	397.7
630.4	390.6
630.6	393.4
630.8	387.5
631.0	383.8
631.2	381.5
631.4	379.5
631.6	382.1
631.8	383.5
632.0	379.8
632.2	376.6
632.4	372.9
632.6	369.3
632.8	368.3
633.0	362.2
633.2	357.8
633.4	352.3
633.6	350.9
633.8	351.4
634.0	349.3
634.2	343.7
634.4	337.2
634.6	331.8
634.8	332.9
635.0	335.8
635.2	336.0
635.4	334.0
635.6	333.4
635.8	329.1
636.0	329.7
636.2	327.0
636.4	323.3
636.6	318.9
636.8	318.8
637.0	316.2
637.2	317.2
637.4	313.6
637.6	314.4
637.8	309.4
638.0	304.3
638.2	304.0
638.4	305.1
638.6	304.5
638.8	306.2
639.0	302.6
639.2	293.5
639.4	291.9
639.6	294.2
639.8	291.0
640.0	284.8
640.2	284.1
640.4	283.8
640.6	285.9
640.8	287.4
641.0	280.2
641.2	270.2
641.4	269.2
641.6	268.2
641.8	270.9
642.0	272.6
642.2	272.2
642.4	268.7
642.6	269.5
642.8	261.4
643.0	259.9
643.2	260.3
643.4	261.3
643.6	261.3
643.8	260.8
644.0	257.2
644.2	256.3
644.4	256.5
644.6	252.2
644.8	249.6
645.0	242.2
645.2	241.2
645.4	239.4
645.6	240.5
645.8	238.6
646.0	235.5
646.2	229.2
646.4	228.0
646.6	229.5
646.8	232.7
647.0	233.3
647.2	231.2
647.4	227.0
647.6	224.2
647.8	223.6
648.0	223.5
648.2	223.6
648.4	224.8
648.6	226.7
648.8	226.2
649.0	220.8
649.2	216.8
649.4	217.0
649.6	218.9
649.8	221.4
650.0	219.3
650.2	213.7
650.4	211.2
650.6	212.0
650.8	212.4
651.0	214.5
651.2	213.9
651.4	209.2
651.6	208.4
651.8	206.6
652.0	205.6
652.2	205.6
652.4	204.6
652.6	201.6
652.8	200.7
653.0	197.3
653.2	197.0
653.4	193.2
653.6	193.3
653.8	192.9
654.0	191.7
654.2	189.1
654.4	190.5
654.6	190.6
654.8	190.0
655.0	184.7
655.2	181.2
655.4	181.2
655.6	181.2
655.8	183.3
656.0	184.1
656.2	182.2
656.4	181.0
656.6	178.5
656.8	174.5
657.0	169.2
657.2	169.9
657.4	172.2
657.6	174.6
657.8	173.9
658.0	173.6
658.2	167.5
658.4	167.1
658.6	168.1
658.8	170.4
659.0	168.1
659.2	166.6
659.4	162.5
659.6	161.5
659.8	163.7
660.0	166.3
660.2	167.5
660.4	168.9
660.6	165.5
660.8	162.5
661.0	160.6
661.2	157.6
661.4	158.0
661.6	156.1
661.8	152.0
662.0	149.7
662.2	148.9
662.4	148.8
662.6	150.4
662.8	151.4
663.0	150.2
663.2	147.6
663.4	145.5
663.6	144.6
663.8	145.4
664.0	147.5
664.2	148.6
664.4	147.4
664.6	145.9
664.8	145.7
665.0	143.8
665.2	143.1
665.4	142.4
665.6	139.9
665.8	140.1
666.0	139.4
666.2	135.3
666.4	136.1
666.6	136.2
666.8	136.4
667.0	138.7
667.2	137.0
667.4	132.7
667.6	132.7
667.8	134.2
668.0	133.3
668.2	133.5
668.4	132.1
668.6	128.9
668.8	127.0
669.0	129.3
669.2	126.1
669.4	125.1
669.6	123.0
669.8	123.0
670.0	121.7
670.2	124.1
670.4	121.5
670.6	119.2
670.8	118.4
671.0	119.2
671.2	119.8
671.4	120.6
671.6	119.2
671.8	115.2
672.0	113.2
672.2	110.1
672.4	110.7
672.6	111.9
672.8	115.2
673.0	116.8
673.2	116.0
673.4	112.7
673.6	109.7
673.8	108.3
674.0	110.0
674.2	112.4
674.4	112.3
674.6	107.9
674.8	105.5
675.0	103.8
675.2	103.8
675.4	104.0
675.6	105.5
675.8	103.0
676.0	102.8
676.2	101.6
676.4	99.86
676.6	98.29
676.8	97.60
677.0	95.57
677.2	96.63
677.4	99.57
677.6	100.2
677.8	101.1
678.0	99.93
678.2	96.11
678.4	96.20
678.6	97.44
678.8	96.19
679.0	96.04
679.2	95.49
679.4	92.52
679.6	93.12
679.8	94.22
680.0	93.04
680.2	93.38
680.4	92.32
680.6	89.38
680.8	89.47
681.0	88.26
681.2	90.30
681.4	94.48
681.6	94.49
681.8	94.10
682.0	92.95
682.2	88.10
682.4	87.12
682.6	85.36
682.8	83.75
683.0	84.89
683.2	84.56
683.4	86.77
683.6	87.46
683.8	86.17
684.0	86.17
684.2	83.47
684.4	81.19
684.6	82.27
684.8	81.97
685.0	84.58
685.2	87.05
685.4	87.05
685.6	86.40
685.8	85.57
686.0	83.01
686.2	81.45
686.4	81.21
686.6	78.81
686.8	78.53
687.0	82.36
687.2	83.36
687.4	82.81
687.6	82.61
687.8	79.60
688.0	78.05
688.2	77.66
688.4	77.29
688.6	76.97
688.8	76.64
689.0	76.98
689.2	76.82
689.4	76.39
689.6	78.51
689.8	79.90
690.0	78.35
690.2	76.50
690.4	74.52
690.6	72.82
690.8	74.31
691.0	74.71
691.2	73.22
691.4	73.17
691.6	73.72
691.8	75.07
692.0	76.09
692.2	75.24
692.4	74.86
692.6	72.43
692.8	71.13
693.0	71.49
693.2	69.17
693.4	69.26
693.6	70.06
693.8	70.47
694.0	70.80
694.2	70.28
694.4	67.53
694.6	69.03
694.8	68.60
695.0	69.35
695.2	70.05
695.4	69.36
695.6	68.05
695.8	68.08
696.0	66.52
696.2	66.31
696.4	68.77
696.6	69.48
696.8	68.25
697.0	66.54
697.2	64.99
697.4	64.77
697.6	64.18
697.8	63.62
698.0	63.65
698.2	64.46
698.4	63.98
698.6	63.75
698.8	62.21
699.0	61.76
699.2	62.20
699.4	61.68
699.6	59.97
699.8	59.12
700.0	58.19
700.2	58.40
700.4	60.13
700.6	60.13
700.8	59.82
701.0	58.70
701.2	57.90
701.4	57.70
701.6	57.63
701.8	56.71
702.0	56.68
702.2	56.54
702.4	57.76
702.6	59.55
702.8	58.58
703.0	57.07
703.2	56.62
703.4	56.16
703.6	56.79
703.8	57.56
704.0	57.79
704.2	57.28
704.4	56.87
704.6	56.78
704.8	56.68
705.0	55.43
705.2	54.52
705.4	55.29
705.6	54.98
705.8	56.22
706.0	56.14
706.2	54.96
706.4	54.57
706.6	55.36
706.8	55.11
707.0	54.12
707.2	53.36
707.4	51.29
707.6	52.49
707.8	54.02
708.0	55.90
708.2	53.72
708.4	54.11
708.6	52.29
708.8	52.07
709.0	51.62
709.2	52.37
709.4	51.59
709.6	51.89
709.8	52.07
710.0	52.01
710.2	50.48
710.4	49.88
710.6	52.45
710.8	52.76
711.0	53.08
711.2	51.09
711.4	48.96
711.6	47.98
711.8	49.27
712.0	50.67
712.2	53.17
712.4	53.45
712.6	52.89
712.8	52.14
713.0	48.35
713.2	47.47
713.4	49.60
713.6	51.04
713.8	50.71
714.0	50.43
714.2	48.20
714.4	47.52
714.6	48.49
714.8	48.58
715.0	48.36
715.2	48.45
715.4	48.22
715.6	46.50
715.8	46.12
716.0	45.36
716.2	45.97
716.4	46.35
716.6	46.18
716.8	45.35
717.0	44.98
717.2	45.10
717.4	44.68
717.6	44.17
717.8	43.54
718.0	42.55
718.2	42.47
718.4	43.03
718.6	42.39
718.8	42.75
719.0	43.35
719.2	42.88
719.4	43.44
719.6	42.41
719.8	41.41
720.0	40.69
720.2	39.97
720.4	40.37
720.6	40.81
720.8	40.30
721.0	40.94
721.2	40.32
721.4	39.04
721.6	38.22
721.8	37.86
722.0	38.00
722.2	39.25
722.4	39.31
722.6	39.17
722.8	37.57
723.0	37.25
723.2	37.08
723.4	36.93
723.6	36.99
723.8	36.70
724.0	36.32
724.2	37.45
724.4	37.70
724.6	38.63
724.8	38.69
725.0	38.01
725.2	35.57
725.4	34.48
725.6	32.64
725.8	35.08
726.0	35.55
726.2	36.41
726.4	35.60
726.6	35.19
726.8	35.55
727.0	37.77
727.2	35.64
727.4	32.69
727.6	31.20
727.8	29.76
728.0	31.58
728.2	32.34
728.4	33.06
728.6	33.36
728.8	34.05
729.0	34.20
729.2	35.24
729.4	33.58
729.6	33.84
729.8	34.03
730.0	34.14
730.2	34.19
730.4	33.78
730.6	33.41
730.8	31.94
731.0	30.71
731.2	29.74
731.4	30.10
731.6	31.31
731.8	33.33
732.0	32.35
732.2	31.35
732.4	32.01
732.6	32.10
732.8	34.01
733.0	33.05
733.2	32.20
733.4	32.31
733.6	33.95
733.8	32.69
734.0	31.72
734.2	29.44
734.4	29.47
734.6	31.15
734.8	32.47
735.0	33.16
735.2	31.81
735.4	30.91
735.6	29.63
735.8	29.96
736.0	28.54
736.2	28.35
736.4	28.23
736.6	27.78
736.8	26.89
737.0	27.76
737.2	28.09
737.4	29.37
737.6	30.22
737.8	29.02
738.0	27.78
738.2	26.42
738.4	26.02
738.6	26.10
738.8	26.65
739.0	26.49
739.2	28.19
739.4	29.35
739.6	28.91
739.8	27.27
740.0	27.53
740.2	26.38
740.4	26.37
740.6	26.71
740.8	25.85
741.0	25.56
741.2	26.53
741.4	26.48
741.6	25.99
741.8	25.85
742.0	24.50
742.2	24.63
742.4	25.27
742.6	25.49
742.8	24.88
743.0	25.24
743.2	24.68
743.4	26.05
743.6	27.19
743.8	26.84
744.0	25.06
744.2	23.51
744.4	22.81
744.6	22.66
744.8	22.42
745.0	22.60
745.2	22.47
745.4	22.64
745.6	23.92
745.8	23.84
746.0	23.49
746.2	22.45
746.4	21.21
746.6	21.10
746.8	22.48
747.0	22.73
747.2	22.87
747.4	21.93
747.6	21.02
747.8	20.95
748.0	21.17
748.2	21.18
748.4	21.10
748.6	20.49
748.8	20.10
749.0	20.22
749.2	19.76
749.4	20.82
749.6	21.08
749.8	21.58
750.0	22.10
750.2	21.86
750.4	21.03
750.6	21.36
750.8	20.92
751.0	20.73
751.2	21.55
751.4	20.37
751.6	20.14
751.8	20.06
752.0	19.90
752.2	20.24
752.4	20.96
752.6	20.42
752.8	20.20
753.0	19.56
753.2	19.11
753.4	18.72
753.6	19.67
753.8	20.40
754.0	20.51
754.2	19.77
754.4	19.44
754.6	19.29
754.8	20.09
755.0	20.19
755.2	20.13
755.4	19.24
755.6	20.25
755.8	21.06
756.0	21.04
756.2	20.37
756.4	19.51
756.6	18.74
756.8	19.49
757.0	20.00
757.2	19.91
757.4	19.63
757.6	19.04
757.8	19.09
758.0	19.57
758.2	20.00
758.4	20.73
758.6	21.02
758.8	21.17
759.0	21.24
759.2	21.02
759.4	20.63
759.6	20.47
759.8	19.44
760.0	19.60
760.2	20.15
760.4	20.81
760.6	21.51
760.8	22.04
761.0	20.96
761.2	19.96
761.4	19.65
761.6	19.15
761.8	19.42
762.0	20.73
762.2	20.47
762.4	20.04
762.6	19.99
762.8	19.71
763.0	19.69
763.2	19.58
763.4	19.64
763.6	19.63
763.8	20.60
764.0	20.70
764.2	20.38
764.4	19.31
764.6	18.49
764.8	18.82
765.0	19.64
765.2	20.50
765.4	20.65
765.6	20.81
765.8	19.23
766.0	19.06
766.2	18.47
766.4	19.06
766.6	19.09
766.8	19.97
767.0	18.99
767.2	18.64
767.4	17.72
767.6	17.88
767.8	18.01
768.0	18.40
768.2	18.65
768.4	18.80
768.6	18.61
768.8	18.75
769.0	17.74
769.2	16.32
769.4	16.60
769.6	17.02
769.8	17.47
770.0	17.41
770.2	16.11
770.4	14.73
770.6	15.33
770.8	16.07
771.0	15.90
771.2	15.80
771.4	14.65
771.6	14.16
771.8	14.51
772.0	14.59
772.2	14.99
772.4	14.76
772.6	14.76
772.8	14.60
773.0	15.05
773.2	14.82
773.4	14.77
773.6	14.19
773.8	14.76
774.0	14.92
774.2	15.41
774.4	14.96
774.6	13.89
774.8	13.56
775.0	13.04
775.2	13.27
775.4	13.09
775.6	12.97
775.8	12.84
776.0	13.26
776.2	13.04
776.4	12.95
776.6	12.45
776.8	11.90
777.0	11.14
777.2	11.19
777.4	11.32
777.6	11.86
777.8	11.92
778.0	11.57
778.2	11.46
778.4	12.11
778.6	12.32
778.8	12.38
779.0	11.95
779.2	11.11
779.4	11.01
779.6	11.24
779.8	12.06
780.0	11.78
780.2	12.73
780.4	13.05
780.6	13.56
780.8	13.13
781.0	12.72
781.2	11.77
781.4	11.89
781.6	11.78
781.8	12.95
782.0	12.98
782.2	12.87
782.4	12.51
782.6	12.24
782.8	12.01
783.0	13.20
783.2	13.84
783.4	14.92
783.6	14.54
783.8	13.93
784.0	12.28
784.2	11.30
784.4	10.61
784.6	11.12
784.8	11.61
785.0	12.67
785.2	12.36
785.4	12.51
785.6	12.21
785.8	12.61
786.0	12.96
786.2	13.02
786.4	12.88
786.6	12.48
786.8	11.73
787.0	11.53
787.2	11.87
787.4	12.15
787.6	12.62
787.8	12.02
788.0	11.93
788.2	12.09
788.4	13.14
788.6	14.01
788.8	13.67
789.0	13.45
789.2	13.60
789.4	13.61
789.6	13.98
789.8	14.30
790.0	13.73
790.2	13.77
790.4	13.87
790.6	13.50
790.8	13.21
791.0	13.68
791.2	13.48
791.4	13.23
791.6	13.06
791.8	13.05
792.0	12.63
792.2	13.10
792.4	12.68
792.6	12.88
792.8	12.34
793.0	12.78
793.2	13.10
793.4	13.54
793.6	13.50
793.8	13.50
794.0	13.02
794.2	12.83
794.4	12.64
794.6	12.18
794.8	12.35
795.0	12.10
795.2	12.25
795.4	12.47
795.6	12.80
795.8	13.02
796.0	13.58
796.2	12.99
796.4	12.01
796.6	11.89
796.8	11.67
797.0	11.90
797.2	12.45
797.4	12.94
797.6	12.96
797.8	13.48
798.0	13.48
798.2	13.60
798.4	13.32
798.6	12.71
798.8	11.95
799.0	11.94
799.2	11.64
799.4	12.09
799.6	11.94
799.8	11.33
800.0	10.11

