Sample:	'20211010A(EM)
File name:	b-cds 1;5 800v.FDS
Run date:	'14:43:08, 03/22/2023
Operator:	Administrator
Comment:	'

Instrument
Model:	F-4700 FL Spectrophotometer
Serial number:	2019-001
ROM Version:	5J24010 00

Instrument parameters
Measurement type:	Wavelength scan
Scan mode:	Emission
Data mode:	Fluorescence
EX WL:	350.0 nm
EM  Start WL:	370.0 nm
EM  End WL:	800.0 nm
Scan speed:	1200 nm/min
Delay:	0.0 s
EX Slit:	10.0 nm
EM Slit:	10.0 nm
PMT Voltage:	800 V
Response:	0.002 s
Corrected spectra:	Off
Shutter control:	On

Processing performed
Savitsky-Golay smoothed
Smoothing order:	3
Number of points:	7
Number of times:	1

Peak integration
Integration method:	Rectangular
Sensitivity:	1
Threshold:	1.000

Peaks
No.	Start(nm)	Apex(nm)	End(nm)	Height(Data)	Valley(nm)	Valley(Data)
1	370.0	376.4	377.6	10.22	377.6	6.356
2	377.6	378.2	378.8	10.28	378.8	6.985
3	378.8	381.2	382.2	10.81	382.2	7.654
4	382.2	382.8	384.6	11.96	384.6	8.607
5	384.6	386.2	387.4	13.76	387.4	7.758
6	387.4	389.4	390.2	14.00	390.2	11.45
7	390.2	391.0	391.8	14.31	391.8	10.51
8	391.8	393.6	394.2	18.60	394.2	13.50
9	394.2	395.2	396.0	19.03	396.0	10.70
10	396.0	398.4	399.6	20.94	399.6	17.01
11	399.6	400.6	401.4	27.33	401.4	21.28
12	401.4	403.0	403.8	29.80	403.8	25.79
13	403.8	407.2	407.8	43.81	407.8	35.30
14	407.8	408.6	409.4	48.41	409.4	38.66
15	409.4	410.8	411.4	54.69	411.4	45.90
16	411.4	417.0	417.4	88.32	417.4	85.83
17	417.4	419.2	419.8	114.7	419.8	100.4
18	419.8	422.8	424.4	136.9	424.4	124.8
19	424.4	431.0	431.6	193.2	431.6	174.6
20	431.6	438.0	438.6	270.7	438.6	252.9
21	438.6	440.6	441.2	285.5	441.2	262.8
22	441.2	442.2	443.2	298.6	443.2	268.9
23	443.2	452.4	453.4	383.9	453.4	345.5
24	453.4	458.0	458.4	407.2	458.4	388.5
25	458.4	461.4	462.6	446.6	462.6	404.5
26	462.6	464.4	465.0	438.4	465.0	423.7
27	465.0	467.8	468.6	469.4	468.6	454.9
28	468.6	471.4	472.0	537.4	472.0	502.2
29	472.0	473.0	473.6	533.2	473.6	514.1
30	473.6	475.4	475.8	566.5	475.8	534.9
31	475.8	484.4	485.0	729.6	485.0	706.4
32	485.0	500.8	501.6	1089	501.6	1037
33	501.6	504.4	504.8	1136	504.8	1096
34	504.8	506.2	509.0	1151	509.0	1093
35	509.0	510.2	511.6	1152	511.6	1105
36	511.6	514.0	514.8	1207	514.8	1130
37	514.8	516.6	518.2	1225	518.2	1175
38	518.2	548.8	549.6	3408	549.6	3349
39	549.6	551.4	552.2	3479	552.2	3425
40	552.2	554.8	555.8	3491	555.8	3457
41	555.8	556.6	560.4	3568	560.4	3388
42	560.4	561.4	563.2	3445	563.2	3363
43	563.2	564.0	574.2	3486	574.2	3158
44	574.2	574.8	579.2	3226	579.2	3061
45	579.2	580.2	586.8	3101	586.8	2804
46	586.8	587.4	631.0	2846	631.0	1024
47	631.0	632.0	641.8	1061	641.8	777.3
48	641.8	642.2	655.4	794.9	655.4	528.0
49	655.4	655.8	660.2	549.7	660.2	442.0
50	660.2	661.0	667.0	477.0	667.0	347.4
51	667.0	668.0	675.4	379.2	675.4	267.8
52	675.4	676.2	677.6	282.0	677.6	240.1
53	677.6	678.4	681.0	260.2	681.0	223.4
54	681.0	681.4	684.8	234.8	684.8	198.8
55	684.8	685.6	692.0	213.1	692.0	175.8
56	692.0	693.6	694.2	187.9	694.2	171.0
57	694.2	695.0	695.8	180.2	695.8	167.6
58	695.8	696.8	699.2	177.5	699.2	146.4
59	699.2	700.0	700.6	163.2	700.6	150.8
60	700.6	701.4	704.8	163.7	704.8	142.9
61	704.8	705.6	715.0	158.5	715.0	97.44
62	715.0	715.8	720.8	112.9	720.8	78.52
63	720.8	722.4	726.2	86.22	726.2	64.69
64	726.2	727.6	730.0	71.40	730.0	57.92
65	730.0	730.8	734.0	70.62	734.0	47.18
66	734.0	736.4	739.2	56.86	739.2	42.29
67	739.2	739.8	741.2	50.46	741.2	34.97
68	741.2	742.8	744.8	51.48	744.8	37.50
69	744.8	745.8	747.6	45.36	747.6	29.72
70	747.6	749.2	751.4	40.59	751.4	30.61
71	751.4	752.4	753.2	38.08	753.2	29.98
72	753.2	753.6	756.8	33.91	756.8	25.75
73	756.8	757.8	761.0	33.43	761.0	27.43
74	761.0	761.4	763.2	31.91	763.2	23.79
75	763.2	764.0	765.6	31.14	765.6	22.27
76	765.6	766.4	767.4	26.05	767.4	17.90
77	767.4	769.4	770.2	25.18	770.2	20.61
78	770.2	770.6	773.8	26.63	773.8	15.66
79	773.8	775.4	776.4	22.20	776.4	17.76
80	776.4	777.2	779.4	22.19	779.4	16.29
81	779.4	780.0	781.6	21.43	781.6	14.48
82	781.6	782.4	783.4	19.35	783.4	13.00
83	783.4	784.2	785.2	22.28	785.2	13.65
84	785.2	786.0	787.8	21.10	787.8	13.83
85	787.8	788.8	790.4	18.84	790.4	13.11
86	790.4	791.4	793.4	17.98	793.4	13.42
87	793.4	795.0	795.4	17.57	795.4	12.89
88	795.4	797.2	799.0	19.67	799.0	12.15

Data points
nm	Data
370.0	5.939
370.2	8.263
370.4	9.177
370.6	9.265
370.8	9.353
371.0	9.802
371.2	10.81
371.4	10.36
371.6	8.923
371.8	7.239
372.0	5.739
372.2	6.790
372.4	9.477
372.6	10.40
372.8	10.53
373.0	9.829
373.2	7.823
373.4	7.585
373.6	9.081
373.8	9.845
374.0	9.908
374.2	8.328
374.4	5.932
374.6	7.362
374.8	8.476
375.0	8.459
375.2	8.273
375.4	7.446
375.6	7.128
375.8	8.861
376.0	9.366
376.2	10.06
376.4	10.22
376.6	10.10
376.8	10.08
377.0	8.880
377.2	8.654
377.4	7.298
377.6	6.356
377.8	7.581
378.0	9.013
378.2	10.28
378.4	10.10
378.6	8.116
378.8	6.985
379.0	7.267
379.2	7.487
379.4	8.307
379.6	8.324
379.8	9.510
380.0	10.67
380.2	10.16
380.4	8.722
380.6	9.233
380.8	8.260
381.0	9.672
381.2	10.81
381.4	10.37
381.6	9.283
381.8	9.378
382.0	8.220
382.2	7.654
382.4	9.233
382.6	10.72
382.8	11.96
383.0	11.69
383.2	11.38
383.4	9.091
383.6	9.637
383.8	9.431
384.0	9.101
384.2	9.095
384.4	9.339
384.6	8.607
384.8	9.724
385.0	10.25
385.2	9.004
385.4	8.754
385.6	8.893
385.8	9.766
386.0	11.52
386.2	13.76
386.4	13.72
386.6	12.35
386.8	11.23
387.0	9.857
387.2	8.417
387.4	7.758
387.6	8.784
387.8	10.08
388.0	10.31
388.2	12.19
388.4	12.11
388.6	12.41
388.8	13.66
389.0	13.41
389.2	13.71
389.4	14.00
389.6	12.80
389.8	13.08
390.0	12.75
390.2	11.45
390.4	11.76
390.6	12.03
390.8	13.47
391.0	14.31
391.2	14.25
391.4	12.45
391.6	11.13
391.8	10.51
392.0	11.52
392.2	12.05
392.4	12.68
392.6	12.36
392.8	12.11
393.0	13.74
393.2	16.16
393.4	18.49
393.6	18.60
393.8	16.45
394.0	13.93
394.2	13.50
394.4	13.83
394.6	16.41
394.8	16.11
395.0	17.74
395.2	19.03
395.4	17.35
395.6	15.07
395.8	12.35
396.0	10.70
396.2	12.84
396.4	14.69
396.6	15.35
396.8	17.18
397.0	17.98
397.2	20.14
397.4	18.45
397.6	17.99
397.8	17.39
398.0	18.30
398.2	20.88
398.4	20.94
398.6	17.46
398.8	18.70
399.0	18.89
399.2	18.67
399.4	19.02
399.6	17.01
399.8	17.13
400.0	22.18
400.2	24.16
400.4	27.16
400.6	27.33
400.8	23.62
401.0	23.33
401.2	23.48
401.4	21.28
401.6	24.96
401.8	27.25
402.0	26.88
402.2	28.49
402.4	27.50
402.6	25.02
402.8	28.39
403.0	29.80
403.2	28.31
403.4	27.94
403.6	27.28
403.8	25.79
404.0	27.13
404.2	29.68
404.4	30.42
404.6	32.49
404.8	34.04
405.0	32.26
405.2	28.88
405.4	31.87
405.6	34.11
405.8	35.94
406.0	38.81
406.2	38.02
406.4	35.46
406.6	37.75
406.8	40.82
407.0	41.86
407.2	43.81
407.4	42.62
407.6	37.89
407.8	35.30
408.0	35.61
408.2	37.01
408.4	43.94
408.6	48.41
408.8	47.54
409.0	46.54
409.2	41.82
409.4	38.66
409.6	41.81
409.8	45.18
410.0	46.44
410.2	49.71
410.4	50.93
410.6	52.53
410.8	54.69
411.0	52.35
411.2	47.57
411.4	45.90
411.6	47.51
411.8	50.67
412.0	53.82
412.2	55.38
412.4	56.51
412.6	57.75
412.8	59.01
413.0	59.91
413.2	62.22
413.4	66.04
413.6	67.95
413.8	68.82
414.0	64.72
414.2	68.54
414.4	69.11
414.6	75.00
414.8	77.68
415.0	76.84
415.2	73.90
415.4	77.23
415.6	73.53
415.8	77.71
416.0	80.90
416.2	81.90
416.4	85.36
416.6	88.28
416.8	87.22
417.0	88.32
417.2	87.21
417.4	85.83
417.6	87.89
417.8	87.62
418.0	86.18
418.2	87.50
418.4	92.76
418.6	95.93
418.8	106.7
419.0	113.5
419.2	114.7
419.4	110.2
419.6	109.3
419.8	100.4
420.0	101.5
420.2	104.8
420.4	104.0
420.6	106.2
420.8	109.3
421.0	111.7
421.2	111.4
421.4	112.9
421.6	111.2
421.8	109.7
422.0	109.7
422.2	112.1
422.4	113.2
422.6	126.7
422.8	136.9
423.0	135.8
423.2	134.5
423.4	131.1
423.6	129.5
423.8	133.4
424.0	132.0
424.2	126.9
424.4	124.8
424.6	133.9
424.8	143.7
425.0	150.2
425.2	153.8
425.4	150.9
425.6	148.5
425.8	150.9
426.0	147.8
426.2	152.0
426.4	156.2
426.6	151.6
426.8	148.9
427.0	148.3
427.2	145.7
427.4	159.4
427.6	167.6
427.8	169.2
428.0	167.2
428.2	168.1
428.4	167.1
428.6	178.3
428.8	183.2
429.0	183.4
429.2	182.0
429.4	179.3
429.6	175.7
429.8	184.8
430.0	189.8
430.2	189.3
430.4	188.7
430.6	190.7
430.8	192.5
431.0	193.2
431.2	188.9
431.4	182.0
431.6	174.6
431.8	184.2
432.0	197.6
432.2	202.1
432.4	204.8
432.6	203.6
432.8	197.0
433.0	202.0
433.2	202.2
433.4	203.0
433.6	212.2
433.8	214.8
434.0	212.0
434.2	215.1
434.4	211.5
434.6	217.5
434.8	224.7
435.0	235.6
435.2	231.0
435.4	226.3
435.6	225.9
435.8	233.2
436.0	236.6
436.2	243.5
436.4	236.1
436.6	235.5
436.8	235.8
437.0	235.8
437.2	237.1
437.4	235.5
437.6	245.8
437.8	266.5
438.0	270.7
438.2	267.3
438.4	253.6
438.6	252.9
438.8	254.3
439.0	262.2
439.2	260.8
439.4	266.2
439.6	256.5
439.8	263.0
440.0	262.5
440.2	275.2
440.4	280.0
440.6	285.5
440.8	278.0
441.0	272.5
441.2	262.8
441.4	264.9
441.6	276.7
441.8	279.9
442.0	287.3
442.2	298.6
442.4	291.7
442.6	282.6
442.8	283.8
443.0	275.9
443.2	268.9
443.4	276.5
443.6	273.5
443.8	271.1
444.0	273.3
444.2	285.4
444.4	296.8
444.6	310.7
444.8	309.9
445.0	301.5
445.2	293.2
445.4	295.3
445.6	312.9
445.8	320.4
446.0	321.8
446.2	320.5
446.4	315.1
446.6	312.8
446.8	326.0
447.0	326.2
447.2	327.9
447.4	319.6
447.6	316.4
447.8	310.1
448.0	320.5
448.2	328.2
448.4	336.5
448.6	337.7
448.8	342.8
449.0	332.6
449.2	326.2
449.4	323.2
449.6	327.3
449.8	344.2
450.0	350.1
450.2	335.6
450.4	327.3
450.6	329.2
450.8	337.5
451.0	351.5
451.2	356.8
451.4	349.4
451.6	353.0
451.8	353.8
452.0	365.4
452.2	374.2
452.4	383.9
452.6	376.6
452.8	364.6
453.0	348.2
453.2	346.3
453.4	345.5
453.6	347.0
453.8	353.2
454.0	359.7
454.2	367.7
454.4	363.4
454.6	367.4
454.8	361.2
455.0	367.6
455.2	365.2
455.4	366.4
455.6	363.0
455.8	367.9
456.0	367.2
456.2	388.3
456.4	386.9
456.6	382.4
456.8	383.5
457.0	376.3
457.2	369.1
457.4	394.2
457.6	394.7
457.8	401.5
458.0	407.2
458.2	403.4
458.4	388.5
458.6	396.6
458.8	396.5
459.0	396.4
459.2	404.3
459.4	397.1
459.6	401.6
459.8	407.2
460.0	408.9
460.2	401.8
460.4	409.2
460.6	405.2
460.8	428.2
461.0	439.7
461.2	446.4
461.4	446.6
461.6	440.3
461.8	431.5
462.0	427.0
462.2	413.7
462.4	405.9
462.6	404.5
462.8	412.2
463.0	422.7
463.2	423.7
463.4	422.9
463.6	421.3
463.8	424.3
464.0	431.4
464.2	436.1
464.4	438.4
464.6	432.2
464.8	426.2
465.0	423.7
465.2	430.0
465.4	429.6
465.6	439.6
465.8	441.5
466.0	451.2
466.2	469.7
466.4	474.4
466.6	464.4
466.8	460.8
467.0	453.0
467.2	453.8
467.4	463.6
467.6	463.2
467.8	469.4
468.0	466.9
468.2	460.6
468.4	462.4
468.6	454.9
468.8	456.5
469.0	464.3
469.2	464.2
469.4	467.7
469.6	475.4
469.8	479.7
470.0	486.2
470.2	489.8
470.4	495.6
470.6	501.5
470.8	513.7
471.0	530.6
471.2	536.8
471.4	537.4
471.6	532.8
471.8	516.6
472.0	502.2
472.2	502.2
472.4	504.0
472.6	521.4
472.8	529.9
473.0	533.2
473.2	522.0
473.4	519.2
473.6	514.1
473.8	516.3
474.0	515.1
474.2	529.3
474.4	529.0
474.6	531.4
474.8	544.0
475.0	559.9
475.2	563.5
475.4	566.5
475.6	552.9
475.8	534.9
476.0	539.4
476.2	558.2
476.4	562.4
476.6	567.5
476.8	558.9
477.0	555.8
477.2	570.0
477.4	592.3
477.6	604.9
477.8	607.6
478.0	594.9
478.2	585.5
478.4	596.7
478.6	610.0
478.8	622.1
479.0	628.2
479.2	633.8
479.4	635.8
479.6	637.4
479.8	628.6
480.0	628.5
480.2	638.3
480.4	647.8
480.6	658.2
480.8	663.7
481.0	651.7
481.2	653.3
481.4	653.7
481.6	654.8
481.8	657.7
482.0	657.9
482.2	658.2
482.4	668.7
482.6	672.0
482.8	682.5
483.0	683.9
483.2	676.2
483.4	682.0
483.6	700.4
483.8	715.0
484.0	725.6
484.2	728.0
484.4	729.6
484.6	718.7
484.8	714.1
485.0	706.4
485.2	713.1
485.4	720.3
485.6	735.6
485.8	740.5
486.0	750.5
486.2	756.1
486.4	770.8
486.6	772.7
486.8	790.1
487.0	795.2
487.2	790.1
487.4	784.9
487.6	783.3
487.8	775.0
488.0	797.6
488.2	799.9
488.4	795.2
488.6	799.2
488.8	812.0
489.0	826.5
489.2	848.4
489.4	841.7
489.6	836.9
489.8	839.8
490.0	842.6
490.2	862.2
490.4	886.0
490.6	886.0
490.8	876.2
491.0	866.4
491.2	850.3
491.4	856.6
491.6	870.8
491.8	886.4
492.0	889.9
492.2	892.7
492.4	897.4
492.6	901.0
492.8	893.5
493.0	911.2
493.2	912.2
493.4	918.8
493.6	920.0
493.8	922.4
494.0	922.5
494.2	930.5
494.4	925.3
494.6	940.2
494.8	931.4
495.0	954.3
495.2	959.3
495.4	967.7
495.6	973.4
495.8	987.8
496.0	975.7
496.2	986.7
496.4	984.8
496.6	987.5
496.8	991.7
497.0	989.6
497.2	988.2
497.4	995.4
497.6	1009
497.8	1017
498.0	1025
498.2	1029
498.4	1024
498.6	1018
498.8	1032
499.0	1042
499.2	1062
499.4	1059
499.6	1054
499.8	1058
500.0	1073
500.2	1077
500.4	1086
500.6	1083
500.8	1089
501.0	1085
501.2	1076
501.4	1051
501.6	1037
501.8	1048
502.0	1056
502.2	1061
502.4	1075
502.6	1090
502.8	1112
503.0	1107
503.2	1090
503.4	1070
503.6	1063
503.8	1086
504.0	1116
504.2	1131
504.4	1136
504.6	1115
504.8	1096
505.0	1100
505.2	1097
505.4	1107
505.6	1123
505.8	1133
506.0	1144
506.2	1151
506.4	1142
506.6	1128
506.8	1128
507.0	1131
507.2	1127
507.4	1118
507.6	1122
507.8	1121
508.0	1141
508.2	1144
508.4	1121
508.6	1111
508.8	1100
509.0	1093
509.2	1120
509.4	1117
509.6	1114
509.8	1141
510.0	1149
510.2	1152
510.4	1147
510.6	1135
510.8	1140
511.0	1143
511.2	1132
511.4	1113
511.6	1105
511.8	1117
512.0	1152
512.2	1158
512.4	1151
512.6	1137
512.8	1141
513.0	1129
513.2	1148
513.4	1166
513.6	1177
513.8	1187
514.0	1207
514.2	1185
514.4	1162
514.6	1143
514.8	1130
515.0	1134
515.2	1167
515.4	1188
515.6	1195
515.8	1187
516.0	1194
516.2	1198
516.4	1201
516.6	1225
516.8	1218
517.0	1213
517.2	1216
517.4	1204
517.6	1189
517.8	1192
518.0	1175
518.2	1175
518.4	1188
518.6	1210
518.8	1219
519.0	1241
519.2	1243
519.4	1247
519.6	1250
519.8	1263
520.0	1253
520.2	1253
520.4	1245
520.6	1247
520.8	1257
521.0	1280
521.2	1278
521.4	1281
521.6	1299
521.8	1312
522.0	1324
522.2	1341
522.4	1350
522.6	1365
522.8	1362
523.0	1346
523.2	1327
523.4	1352
523.6	1382
523.8	1398
524.0	1400
524.2	1403
524.4	1408
524.6	1465
524.8	1489
525.0	1495
525.2	1507
525.4	1516
525.6	1516
525.8	1531
526.0	1537
526.2	1532
526.4	1540
526.6	1563
526.8	1582
527.0	1587
527.2	1597
527.4	1589
527.6	1594
527.8	1628
528.0	1653
528.2	1680
528.4	1707
528.6	1720
528.8	1731
529.0	1741
529.2	1743
529.4	1753
529.6	1757
529.8	1761
530.0	1774
530.2	1789
530.4	1806
530.6	1844
530.8	1864
531.0	1880
531.2	1916
531.4	1925
531.6	1918
531.8	1939
532.0	1936
532.2	1943
532.4	1986
532.6	1998
532.8	2006
533.0	2034
533.2	2054
533.4	2083
533.6	2118
533.8	2159
534.0	2163
534.2	2157
534.4	2172
534.6	2172
534.8	2200
535.0	2249
535.2	2247
535.4	2261
535.6	2301
535.8	2279
536.0	2306
536.2	2353
536.4	2377
536.6	2449
536.8	2494
537.0	2467
537.2	2469
537.4	2469
537.6	2467
537.8	2498
538.0	2543
538.2	2556
538.4	2571
538.6	2588
538.8	2609
539.0	2629
539.2	2665
539.4	2700
539.6	2718
539.8	2740
540.0	2781
540.2	2787
540.4	2791
540.6	2818
540.8	2816
541.0	2843
541.2	2875
541.4	2897
541.6	2919
541.8	2915
542.0	2916
542.2	2910
542.4	2892
542.6	2913
542.8	2914
543.0	2935
543.2	3022
543.4	3065
543.6	3107
543.8	3133
544.0	3093
544.2	3083
544.4	3127
544.6	3183
544.8	3210
545.0	3221
545.2	3194
545.4	3156
545.6	3159
545.8	3205
546.0	3216
546.2	3223
546.4	3213
546.6	3198
546.8	3229
547.0	3269
547.2	3287
547.4	3318
547.6	3318
547.8	3308
548.0	3314
548.2	3291
548.4	3317
548.6	3378
548.8	3408
549.0	3397
549.2	3394
549.4	3359
549.6	3349
549.8	3357
550.0	3363
550.2	3384
550.4	3417
550.6	3455
550.8	3466
551.0	3470
551.2	3470
551.4	3479
551.6	3452
551.8	3439
552.0	3432
552.2	3425
552.4	3432
552.6	3475
552.8	3474
553.0	3466
553.2	3473
553.4	3469
553.6	3465
553.8	3466
554.0	3477
554.2	3470
554.4	3468
554.6	3477
554.8	3491
555.0	3468
555.2	3481
555.4	3479
555.6	3460
555.8	3457
556.0	3466
556.2	3491
556.4	3516
556.6	3568
556.8	3553
557.0	3504
557.2	3467
557.4	3475
557.6	3467
557.8	3496
558.0	3488
558.2	3471
558.4	3469
558.6	3463
558.8	3447
559.0	3454
559.2	3447
559.4	3465
559.6	3453
559.8	3430
560.0	3426
560.2	3424
560.4	3388
560.6	3406
560.8	3422
561.0	3424
561.2	3434
561.4	3445
561.6	3409
561.8	3398
562.0	3397
562.2	3397
562.4	3403
562.6	3423
562.8	3414
563.0	3381
563.2	3363
563.4	3379
563.6	3426
563.8	3460
564.0	3486
564.2	3477
564.4	3424
564.6	3372
564.8	3381
565.0	3392
565.2	3416
565.4	3442
565.6	3409
565.8	3377
566.0	3367
566.2	3406
566.4	3416
566.6	3407
566.8	3360
567.0	3316
567.2	3297
567.4	3330
567.6	3360
567.8	3368
568.0	3320
568.2	3299
568.4	3263
568.6	3257
568.8	3282
569.0	3303
569.2	3280
569.4	3282
569.6	3255
569.8	3256
570.0	3263
570.2	3275
570.4	3263
570.6	3261
570.8	3255
571.0	3242
571.2	3245
571.4	3261
571.6	3270
571.8	3247
572.0	3233
572.2	3224
572.4	3231
572.6	3247
572.8	3241
573.0	3208
573.2	3212
573.4	3243
573.6	3249
573.8	3220
574.0	3180
574.2	3158
574.4	3180
574.6	3214
574.8	3226
575.0	3209
575.2	3193
575.4	3178
575.6	3189
575.8	3198
576.0	3192
576.2	3165
576.4	3130
576.6	3134
576.8	3149
577.0	3173
577.2	3160
577.4	3142
577.6	3114
577.8	3101
578.0	3108
578.2	3130
578.4	3130
578.6	3116
578.8	3103
579.0	3069
579.2	3061
579.4	3074
579.6	3080
579.8	3088
580.0	3097
580.2	3101
580.4	3096
580.6	3100
580.8	3067
581.0	3051
581.2	3032
581.4	3015
581.6	3028
581.8	3055
582.0	3019
582.2	3003
582.4	3025
582.6	2983
582.8	2994
583.0	2992
583.2	2959
583.4	2951
583.6	2965
583.8	2932
584.0	2932
584.2	2920
584.4	2911
584.6	2923
584.8	2909
585.0	2922
585.2	2914
585.4	2911
585.6	2877
585.8	2881
586.0	2849
586.2	2848
586.4	2822
586.6	2815
586.8	2804
587.0	2821
587.2	2829
587.4	2846
587.6	2844
587.8	2826
588.0	2825
588.2	2821
588.4	2791
588.6	2773
588.8	2758
589.0	2740
589.2	2721
589.4	2739
589.6	2697
589.8	2692
590.0	2694
590.2	2715
590.4	2714
590.6	2739
590.8	2703
591.0	2686
591.2	2679
591.4	2673
591.6	2646
591.8	2640
592.0	2607
592.2	2581
592.4	2591
592.6	2601
592.8	2598
593.0	2599
593.2	2579
593.4	2567
593.6	2583
593.8	2567
594.0	2510
594.2	2458
594.4	2423
594.6	2466
594.8	2498
595.0	2495
595.2	2459
595.4	2430
595.6	2402
595.8	2444
596.0	2427
596.2	2423
596.4	2390
596.6	2386
596.8	2395
597.0	2406
597.2	2385
597.4	2388
597.6	2341
597.8	2318
598.0	2326
598.2	2313
598.4	2298
598.6	2285
598.8	2256
599.0	2218
599.2	2217
599.4	2255
599.6	2254
599.8	2236
600.0	2247
600.2	2215
600.4	2191
600.6	2212
600.8	2183
601.0	2184
601.2	2189
601.4	2143
601.6	2134
601.8	2127
602.0	2111
602.2	2118
602.4	2106
602.6	2081
602.8	2102
603.0	2089
603.2	2084
603.4	2070
603.6	2055
603.8	2054
604.0	2040
604.2	2018
604.4	2002
604.6	1976
604.8	1956
605.0	1950
605.2	1957
605.4	1969
605.6	1987
605.8	1971
606.0	1934
606.2	1891
606.4	1898
606.6	1900
606.8	1902
607.0	1891
607.2	1875
607.4	1859
607.6	1858
607.8	1839
608.0	1820
608.2	1807
608.4	1795
608.6	1798
608.8	1802
609.0	1793
609.2	1797
609.4	1792
609.6	1773
609.8	1754
610.0	1737
610.2	1717
610.4	1712
610.6	1711
610.8	1711
611.0	1693
611.2	1689
611.4	1686
611.6	1669
611.8	1691
612.0	1695
612.2	1702
612.4	1693
612.6	1681
612.8	1671
613.0	1688
613.2	1668
613.4	1654
613.6	1610
613.8	1594
614.0	1586
614.2	1575
614.4	1573
614.6	1579
614.8	1579
615.0	1593
615.2	1564
615.4	1528
615.6	1520
615.8	1508
616.0	1510
616.2	1539
616.4	1536
616.6	1535
616.8	1532
617.0	1508
617.2	1483
617.4	1478
617.6	1477
617.8	1473
618.0	1448
618.2	1435
618.4	1449
618.6	1449
618.8	1454
619.0	1456
619.2	1432
619.4	1403
619.6	1401
619.8	1370
620.0	1369
620.2	1397
620.4	1413
620.6	1411
620.8	1397
621.0	1358
621.2	1356
621.4	1357
621.6	1340
621.8	1332
622.0	1321
622.2	1310
622.4	1316
622.6	1299
622.8	1280
623.0	1267
623.2	1259
623.4	1274
623.6	1275
623.8	1261
624.0	1251
624.2	1250
624.4	1241
624.6	1263
624.8	1260
625.0	1244
625.2	1216
625.4	1211
625.6	1197
625.8	1194
626.0	1182
626.2	1179
626.4	1159
626.6	1180
626.8	1189
627.0	1184
627.2	1154
627.4	1167
627.6	1153
627.8	1176
628.0	1177
628.2	1157
628.4	1116
628.6	1138
628.8	1132
629.0	1151
629.2	1136
629.4	1114
629.6	1091
629.8	1083
630.0	1081
630.2	1093
630.4	1085
630.6	1073
630.8	1054
631.0	1024
631.2	1033
631.4	1049
631.6	1061
631.8	1060
632.0	1061
632.2	1049
632.4	1034
632.6	1024
632.8	1015
633.0	1009
633.2	1008
633.4	995.8
633.6	983.3
633.8	974.7
634.0	977.3
634.2	976.4
634.4	971.3
634.6	969.6
634.8	965.0
635.0	951.1
635.2	953.5
635.4	953.6
635.6	945.9
635.8	950.5
636.0	937.8
636.2	933.9
636.4	944.8
636.6	950.2
636.8	930.0
637.0	916.6
637.2	902.6
637.4	894.8
637.6	900.1
637.8	892.2
638.0	884.5
638.2	878.7
638.4	869.1
638.6	858.0
638.8	861.4
639.0	857.8
639.2	862.6
639.4	870.9
639.6	853.0
639.8	844.7
640.0	845.9
640.2	849.1
640.4	844.1
640.6	844.7
640.8	822.5
641.0	806.7
641.2	785.3
641.4	779.6
641.6	783.8
641.8	777.3
642.0	781.9
642.2	794.9
642.4	786.3
642.6	792.9
642.8	794.1
643.0	785.5
643.2	783.4
643.4	779.0
643.6	765.9
643.8	757.9
644.0	746.8
644.2	757.8
644.4	756.3
644.6	747.0
644.8	738.8
645.0	732.1
645.2	734.4
645.4	731.9
645.6	725.7
645.8	725.9
646.0	733.8
646.2	735.6
646.4	740.4
646.6	699.3
646.8	684.6
647.0	679.7
647.2	669.9
647.4	662.1
647.6	674.4
647.8	663.2
648.0	685.1
648.2	679.6
648.4	652.9
648.6	649.1
648.8	648.7
649.0	646.4
649.2	654.8
649.4	642.4
649.6	630.5
649.8	642.1
650.0	639.1
650.2	637.7
650.4	626.1
650.6	626.6
650.8	610.1
651.0	608.4
651.2	599.0
651.4	599.3
651.6	588.4
651.8	590.5
652.0	582.1
652.2	592.9
652.4	584.3
652.6	589.0
652.8	590.8
653.0	589.6
653.2	580.6
653.4	577.8
653.6	567.1
653.8	562.0
654.0	563.7
654.2	559.4
654.4	539.1
654.6	537.2
654.8	528.0
655.0	531.6
655.2	530.2
655.4	528.0
655.6	531.6
655.8	549.7
656.0	538.6
656.2	531.7
656.4	513.4
656.6	509.9
656.8	509.3
657.0	511.8
657.2	503.1
657.4	498.3
657.6	486.0
657.8	498.5
658.0	502.2
658.2	499.7
658.4	497.8
658.6	478.5
658.8	453.9
659.0	456.1
659.2	462.9
659.4	465.9
659.6	473.5
659.8	450.6
660.0	448.5
660.2	442.0
660.4	448.4
660.6	455.7
660.8	470.9
661.0	477.0
661.2	471.5
661.4	448.4
661.6	446.3
661.8	447.0
662.0	440.1
662.2	433.7
662.4	423.5
662.6	420.0
662.8	429.5
663.0	435.7
663.2	417.1
663.4	414.4
663.6	413.0
663.8	409.5
664.0	415.1
664.2	408.8
664.4	393.5
664.6	399.8
664.8	389.5
665.0	389.1
665.2	393.3
665.4	376.0
665.6	367.8
665.8	380.3
666.0	386.7
666.2	389.4
666.4	378.4
666.6	357.9
666.8	351.7
667.0	347.4
667.2	351.1
667.4	358.6
667.6	360.3
667.8	374.3
668.0	379.2
668.2	369.7
668.4	362.3
668.6	356.9
668.8	340.4
669.0	334.6
669.2	337.4
669.4	351.4
669.6	354.2
669.8	350.6
670.0	336.1
670.2	324.0
670.4	324.7
670.6	329.0
670.8	320.5
671.0	316.7
671.2	310.2
671.4	311.6
671.6	324.3
671.8	326.3
672.0	319.2
672.2	311.1
672.4	300.5
672.6	296.6
672.8	304.6
673.0	310.0
673.2	299.8
673.4	291.9
673.6	290.1
673.8	280.4
674.0	282.0
674.2	290.3
674.4	288.0
674.6	291.6
674.8	286.6
675.0	276.7
675.2	268.7
675.4	267.8
675.6	268.7
675.8	273.5
676.0	276.2
676.2	282.0
676.4	275.6
676.6	271.9
676.8	262.8
677.0	255.1
677.2	252.1
677.4	241.6
677.6	240.1
677.8	241.7
678.0	252.7
678.2	259.0
678.4	260.2
678.6	254.5
678.8	253.5
679.0	247.2
679.2	248.1
679.4	242.2
679.6	236.9
679.8	232.0
680.0	232.1
680.2	229.7
680.4	227.3
680.6	225.3
680.8	226.3
681.0	223.4
681.2	230.5
681.4	234.8
681.6	234.2
681.8	232.5
682.0	231.1
682.2	218.2
682.4	218.8
682.6	221.4
682.8	222.3
683.0	228.7
683.2	223.0
683.4	212.4
683.6	214.0
683.8	219.6
684.0	222.5
684.2	228.3
684.4	215.6
684.6	203.2
684.8	198.8
685.0	201.8
685.2	204.6
685.4	207.8
685.6	213.1
685.8	208.8
686.0	209.7
686.2	209.4
686.4	207.9
686.6	207.5
686.8	209.8
687.0	210.3
687.2	208.6
687.4	207.4
687.6	206.8
687.8	204.4
688.0	201.6
688.2	202.5
688.4	197.4
688.6	198.7
688.8	196.8
689.0	193.3
689.2	192.6
689.4	185.0
689.6	186.5
689.8	189.7
690.0	191.3
690.2	185.9
690.4	187.2
690.6	178.2
690.8	176.9
691.0	182.0
691.2	186.4
691.4	183.5
691.6	185.0
691.8	179.7
692.0	175.8
692.2	176.6
692.4	180.3
692.6	184.2
692.8	179.4
693.0	178.7
693.2	182.2
693.4	183.4
693.6	187.9
693.8	185.0
694.0	175.6
694.2	171.0
694.4	173.7
694.6	174.1
694.8	179.0
695.0	180.2
695.2	178.1
695.4	177.3
695.6	177.1
695.8	167.6
696.0	168.5
696.2	171.1
696.4	173.0
696.6	172.0
696.8	177.5
697.0	175.7
697.2	171.3
697.4	172.8
697.6	174.7
697.8	174.8
698.0	176.5
698.2	175.6
698.4	166.2
698.6	160.6
698.8	152.7
699.0	148.1
699.2	146.4
699.4	147.1
699.6	156.2
699.8	159.4
700.0	163.2
700.2	161.3
700.4	157.6
700.6	150.8
700.8	155.9
701.0	156.3
701.2	163.1
701.4	163.7
701.6	162.4
701.8	160.1
702.0	160.7
702.2	158.7
702.4	158.4
702.6	149.8
702.8	149.0
703.0	149.4
703.2	150.6
703.4	153.0
703.6	151.1
703.8	143.5
704.0	143.7
704.2	147.7
704.4	149.3
704.6	144.9
704.8	142.9
705.0	144.1
705.2	151.8
705.4	157.0
705.6	158.5
705.8	150.7
706.0	142.8
706.2	140.6
706.4	145.0
706.6	144.8
706.8	147.1
707.0	147.2
707.2	136.4
707.4	133.8
707.6	136.8
707.8	134.0
708.0	138.1
708.2	138.3
708.4	132.7
708.6	134.6
708.8	134.0
709.0	130.9
709.2	133.3
709.4	129.5
709.6	129.0
709.8	133.4
710.0	131.4
710.2	129.3
710.4	130.6
710.6	130.3
710.8	125.3
711.0	123.7
711.2	121.6
711.4	115.5
711.6	116.7
711.8	118.7
712.0	116.9
712.2	117.2
712.4	121.0
712.6	123.1
712.8	121.3
713.0	117.4
713.2	114.6
713.4	113.8
713.6	116.3
713.8	119.0
714.0	118.9
714.2	114.5
714.4	110.6
714.6	106.8
714.8	102.3
715.0	97.44
715.2	98.75
715.4	103.9
715.6	111.7
715.8	112.9
716.0	111.5
716.2	108.4
716.4	106.2
716.6	103.9
716.8	107.9
717.0	108.4
717.2	108.5
717.4	108.3
717.6	101.2
717.8	91.11
718.0	86.05
718.2	88.10
718.4	91.94
718.6	94.76
718.8	89.09
719.0	89.77
719.2	87.76
719.4	89.28
719.6	86.98
719.8	90.60
720.0	88.24
720.2	92.87
720.4	89.89
720.6	82.34
720.8	78.52
721.0	83.41
721.2	81.16
721.4	84.22
721.6	82.35
721.8	80.98
722.0	81.95
722.2	86.11
722.4	86.22
722.6	85.26
722.8	85.41
723.0	80.62
723.2	74.05
723.4	73.05
723.6	78.24
723.8	77.53
724.0	79.41
724.2	76.35
724.4	74.46
724.6	70.94
724.8	74.69
725.0	72.17
725.2	70.26
725.4	68.54
725.6	67.38
725.8	66.93
726.0	66.39
726.2	64.69
726.4	65.89
726.6	65.94
726.8	65.21
727.0	67.85
727.2	67.87
727.4	70.52
727.6	71.40
727.8	68.25
728.0	64.42
728.2	61.70
728.4	61.04
728.6	61.08
728.8	60.38
729.0	59.61
729.2	60.58
729.4	59.54
729.6	61.91
729.8	58.53
730.0	57.92
730.2	60.30
730.4	65.17
730.6	67.62
730.8	70.62
731.0	65.53
731.2	60.47
731.4	60.17
731.6	62.67
731.8	61.05
732.0	57.97
732.2	56.45
732.4	56.20
732.6	57.96
732.8	57.32
733.0	57.31
733.2	57.45
733.4	57.60
733.6	55.60
733.8	48.83
734.0	47.18
734.2	48.08
734.4	51.81
734.6	55.04
734.8	52.55
735.0	48.72
735.2	53.38
735.4	51.82
735.6	52.59
735.8	55.33
736.0	54.12
736.2	54.24
736.4	56.86
736.6	54.52
736.8	50.80
737.0	50.73
737.2	48.17
737.4	48.54
737.6	47.44
737.8	45.32
738.0	46.17
738.2	49.27
738.4	48.59
738.6	49.49
738.8	46.05
739.0	43.48
739.2	42.29
739.4	44.19
739.6	46.45
739.8	50.46
740.0	49.67
740.2	47.22
740.4	43.81
740.6	41.07
740.8	39.07
741.0	37.87
741.2	34.97
741.4	37.81
741.6	42.09
741.8	43.91
742.0	43.01
742.2	42.51
742.4	44.62
742.6	50.50
742.8	51.48
743.0	47.87
743.2	43.69
743.4	42.15
743.6	42.52
743.8	44.86
744.0	44.77
744.2	41.11
744.4	40.89
744.6	39.80
744.8	37.50
745.0	37.97
745.2	38.57
745.4	38.37
745.6	41.91
745.8	45.36
746.0	43.59
746.2	40.66
746.4	34.93
746.6	36.02
746.8	38.26
747.0	38.31
747.2	36.93
747.4	34.09
747.6	29.72
747.8	31.81
748.0	34.93
748.2	34.07
748.4	36.98
748.6	36.94
748.8	38.22
749.0	38.60
749.2	40.59
749.4	38.40
749.6	35.81
749.8	33.69
750.0	36.81
750.2	36.25
750.4	37.19
750.6	35.90
750.8	33.97
751.0	33.81
751.2	34.10
751.4	30.61
751.6	31.89
751.8	34.13
752.0	36.32
752.2	37.75
752.4	38.08
752.6	34.06
752.8	32.12
753.0	31.35
753.2	29.98
753.4	31.78
753.6	33.91
753.8	32.86
754.0	33.56
754.2	32.49
754.4	30.55
754.6	31.25
754.8	31.37
755.0	31.90
755.2	31.81
755.4	29.16
755.6	28.13
755.8	29.12
756.0	29.32
756.2	28.41
756.4	28.25
756.6	25.75
756.8	25.75
757.0	26.32
757.2	27.91
757.4	29.83
757.6	33.13
757.8	33.43
758.0	31.83
758.2	30.19
758.4	29.50
758.6	32.12
758.8	31.97
759.0	30.71
759.2	30.69
759.4	29.79
759.6	28.05
759.8	27.55
760.0	29.43
760.2	28.60
760.4	29.02
760.6	29.14
760.8	28.56
761.0	27.43
761.2	31.87
761.4	31.91
761.6	31.14
761.8	30.51
762.0	27.27
762.2	26.36
762.4	27.34
762.6	27.39
762.8	26.59
763.0	24.61
763.2	23.79
763.4	26.41
763.6	28.48
763.8	30.01
764.0	31.14
764.2	30.73
764.4	29.33
764.6	28.90
764.8	25.66
765.0	22.27
765.2	22.36
765.4	22.68
765.6	22.27
765.8	24.84
766.0	25.09
766.2	23.76
766.4	26.05
766.6	25.09
766.8	24.55
767.0	23.12
767.2	20.37
767.4	17.90
767.6	20.70
767.8	20.79
768.0	23.86
768.2	24.29
768.4	23.44
768.6	21.76
768.8	23.29
769.0	21.07
769.2	22.97
769.4	25.18
769.6	22.84
769.8	21.53
770.0	21.07
770.2	20.61
770.4	24.31
770.6	26.63
770.8	23.94
771.0	24.00
771.2	23.79
771.4	24.47
771.6	26.06
771.8	24.46
772.0	23.15
772.2	22.93
772.4	24.22
772.6	22.84
772.8	23.42
773.0	21.90
773.2	19.94
773.4	18.51
773.6	17.72
773.8	15.66
774.0	17.35
774.2	17.90
774.4	17.60
774.6	19.39
774.8	18.47
775.0	19.52
775.2	20.67
775.4	22.20
775.6	21.27
775.8	20.25
776.0	17.91
776.2	18.73
776.4	17.76
776.6	18.99
776.8	19.40
777.0	21.88
777.2	22.19
777.4	22.07
777.6	19.25
777.8	16.89
778.0	18.27
778.2	19.68
778.4	19.68
778.6	19.58
778.8	18.86
779.0	17.77
779.2	18.61
779.4	16.29
779.6	16.80
779.8	18.33
780.0	21.43
780.2	20.77
780.4	20.94
780.6	19.42
780.8	19.36
781.0	17.34
781.2	17.51
781.4	15.59
781.6	14.48
781.8	16.11
782.0	17.68
782.2	18.05
782.4	19.35
782.6	18.68
782.8	17.26
783.0	15.73
783.2	13.38
783.4	13.00
783.6	14.96
783.8	17.34
784.0	21.22
784.2	22.28
784.4	20.51
784.6	17.75
784.8	17.85
785.0	15.38
785.2	13.65
785.4	15.85
785.6	15.81
785.8	17.92
786.0	21.10
786.2	19.31
786.4	17.61
786.6	17.21
786.8	15.22
787.0	15.42
787.2	16.84
787.4	15.48
787.6	15.94
787.8	13.83
788.0	14.31
788.2	14.91
788.4	17.25
788.6	17.72
788.8	18.84
789.0	17.47
789.2	16.38
789.4	15.64
789.6	15.76
789.8	16.14
790.0	15.82
790.2	15.53
790.4	13.11
790.6	13.56
790.8	16.02
791.0	17.91
791.2	17.82
791.4	17.98
791.6	15.97
791.8	17.42
792.0	17.56
792.2	16.12
792.4	16.40
792.6	15.62
792.8	15.77
793.0	17.12
793.2	16.16
793.4	13.42
793.6	14.92
793.8	14.88
794.0	16.78
794.2	14.31
794.4	15.78
794.6	15.26
794.8	16.80
795.0	17.57
795.2	16.26
795.4	12.89
795.6	13.57
795.8	15.34
796.0	16.54
796.2	15.21
796.4	13.67
796.6	15.44
796.8	15.57
797.0	17.69
797.2	19.67
797.4	17.94
797.6	17.24
797.8	18.37
798.0	16.74
798.2	16.37
798.4	17.00
798.6	14.53
798.8	12.37
799.0	12.15
799.2	13.93
799.4	17.77
799.6	21.22
799.8	20.94
800.0	14.20

