Sample:	'20211010A(EM)
File name:	b-cds 1;15 590v.FDS
Run date:	'14:52:20, 03/22/2023
Operator:	Administrator
Comment:	'

Instrument
Model:	F-4700 FL Spectrophotometer
Serial number:	2019-001
ROM Version:	5J24010 00

Instrument parameters
Measurement type:	Wavelength scan
Scan mode:	Emission
Data mode:	Fluorescence
EX WL:	350.0 nm
EM  Start WL:	370.0 nm
EM  End WL:	800.0 nm
Scan speed:	1200 nm/min
Delay:	0.0 s
EX Slit:	10.0 nm
EM Slit:	10.0 nm
PMT Voltage:	590 V
Response:	0.002 s
Corrected spectra:	Off
Shutter control:	On

Processing performed
Savitsky-Golay smoothed
Smoothing order:	3
Number of points:	7
Number of times:	1

Peak integration
Integration method:	Rectangular
Sensitivity:	1
Threshold:	1.000

Peaks
No.	Start(nm)	Apex(nm)	End(nm)	Height(Data)	Valley(nm)	Valley(Data)
1	370.0	391.8	392.4	6.958	392.4	5.768
2	392.4	395.6	397.0	7.436	397.0	6.084
3	397.0	399.4	401.0	8.150	401.0	7.120
4	401.0	501.4	686.6	9236	686.6	103.9
5	686.6	687.8	691.8	105.5	691.8	87.81
6	691.8	692.8	697.0	90.11	697.0	77.77
7	697.0	697.6	700.0	80.15	700.0	71.87
8	700.0	700.6	704.0	75.88	704.0	65.95
9	704.0	705.4	707.6	68.45	707.6	62.22
10	707.6	708.6	710.2	66.05	710.2	59.94
11	710.2	711.2	712.2	61.65	712.2	57.23
12	712.2	712.8	715.8	59.09	715.8	50.62
13	715.8	716.8	728.4	52.94	728.4	35.14
14	728.4	730.2	735.4	37.61	735.4	29.64
15	735.4	736.4	737.4	31.76	737.4	28.83
16	737.4	739.0	742.8	31.50	742.8	25.00
17	742.8	743.6	748.8	26.20	748.8	21.63
18	748.8	749.4	751.6	23.58	751.6	19.64
19	751.6	753.0	755.6	21.11	755.6	19.01
20	755.6	756.6	758.2	20.27	758.2	19.22
21	758.2	759.0	760.8	21.00	760.8	19.52
22	760.8	762.4	764.0	20.68	764.0	19.13
23	764.0	764.8	766.2	20.52	766.2	18.50
24	766.2	767.0	780.2	19.94	780.2	10.25
25	780.2	781.8	782.4	12.82	782.4	10.52
26	782.4	784.8	785.4	12.61	785.4	10.78
27	785.4	786.4	787.4	13.22	787.4	11.12
28	787.4	788.6	790.8	12.49	790.8	10.62
29	790.8	794.0	796.2	12.98	796.2	10.75
30	796.2	797.8	800.0	12.38	800.0	10.95

Data points
nm	Data
370.0	4.682
370.2	4.440
370.4	4.664
370.6	5.116
370.8	5.363
371.0	5.691
371.2	5.836
371.4	5.589
371.6	5.874
371.8	5.685
372.0	5.485
372.2	5.188
372.4	5.151
372.6	5.275
372.8	5.458
373.0	5.675
373.2	5.660
373.4	5.416
373.6	5.376
373.8	5.308
374.0	4.859
374.2	5.189
374.4	5.383
374.6	5.501
374.8	5.585
375.0	5.218
375.2	4.889
375.4	5.104
375.6	5.482
375.8	5.421
376.0	5.316
376.2	5.260
376.4	5.053
376.6	5.119
376.8	5.396
377.0	5.217
377.2	5.253
377.4	5.342
377.6	5.029
377.8	5.060
378.0	5.283
378.2	5.328
378.4	5.811
378.6	5.803
378.8	5.767
379.0	5.331
379.2	5.350
379.4	5.377
379.6	5.597
379.8	5.477
380.0	5.365
380.2	4.922
380.4	5.141
380.6	5.509
380.8	5.710
381.0	5.914
381.2	6.001
381.4	6.012
381.6	5.670
381.8	5.608
382.0	5.333
382.2	5.252
382.4	5.488
382.6	5.816
382.8	5.705
383.0	5.851
383.2	5.716
383.4	5.492
383.6	5.523
383.8	5.702
384.0	5.678
384.2	5.568
384.4	5.521
384.6	5.401
384.8	5.163
385.0	5.260
385.2	5.534
385.4	5.745
385.6	5.781
385.8	5.489
386.0	5.071
386.2	5.017
386.4	5.440
386.6	5.513
386.8	5.266
387.0	5.126
387.2	5.596
387.4	5.861
387.6	6.291
387.8	6.143
388.0	5.758
388.2	5.408
388.4	5.633
388.6	5.592
388.8	5.869
389.0	5.806
389.2	5.662
389.4	5.629
389.6	5.691
389.8	5.792
390.0	6.086
390.2	5.792
390.4	5.841
390.6	6.051
390.8	5.743
391.0	5.672
391.2	5.816
391.4	6.110
391.6	6.659
391.8	6.958
392.0	6.454
392.2	6.044
392.4	5.768
392.6	5.851
392.8	6.037
393.0	6.039
393.2	6.049
393.4	5.858
393.6	5.862
393.8	6.394
394.0	6.754
394.2	6.523
394.4	6.808
394.6	6.377
394.8	6.268
395.0	6.895
395.2	7.177
395.4	7.203
395.6	7.436
395.8	7.013
396.0	7.256
396.2	7.184
396.4	6.882
396.6	6.465
396.8	6.130
397.0	6.084
397.2	7.082
397.4	7.166
397.6	6.956
397.8	6.332
398.0	6.456
398.2	6.693
398.4	7.268
398.6	7.475
398.8	7.644
399.0	7.698
399.2	8.147
399.4	8.150
399.6	8.139
399.8	7.870
400.0	7.953
400.2	7.931
400.4	7.488
400.6	7.431
400.8	7.341
401.0	7.120
401.2	7.396
401.4	7.379
401.6	7.544
401.8	7.803
402.0	7.610
402.2	7.559
402.4	7.869
402.6	8.215
402.8	8.871
403.0	9.445
403.2	9.714
403.4	9.367
403.6	9.369
403.8	9.235
404.0	9.423
404.2	10.36
404.4	10.74
404.6	10.54
404.8	10.38
405.0	10.02
405.2	9.863
405.4	10.40
405.6	10.41
405.8	10.38
406.0	10.11
406.2	10.25
406.4	10.31
406.6	10.75
406.8	11.17
407.0	11.62
407.2	11.57
407.4	11.71
407.6	11.78
407.8	11.51
408.0	11.69
408.2	12.13
408.4	12.49
408.6	12.64
408.8	12.94
409.0	12.99
409.2	13.42
409.4	13.99
409.6	14.30
409.8	14.34
410.0	14.42
410.2	14.35
410.4	14.94
410.6	15.61
410.8	16.53
411.0	16.39
411.2	16.81
411.4	16.84
411.6	17.51
411.8	17.43
412.0	17.74
412.2	17.33
412.4	17.80
412.6	18.37
412.8	19.02
413.0	19.06
413.2	19.38
413.4	19.90
413.6	20.30
413.8	21.06
414.0	21.50
414.2	21.71
414.4	22.29
414.6	23.31
414.8	23.92
415.0	24.50
415.2	24.75
415.4	24.89
415.6	25.83
415.8	27.18
416.0	28.66
416.2	29.63
416.4	30.49
416.6	30.99
416.8	31.54
417.0	31.56
417.2	33.18
417.4	34.27
417.6	35.96
417.8	37.17
418.0	38.01
418.2	38.66
418.4	40.08
418.6	40.70
418.8	42.89
419.0	44.33
419.2	45.99
419.4	47.73
419.6	49.09
419.8	49.33
420.0	50.62
420.2	51.81
420.4	54.59
420.6	57.73
420.8	59.50
421.0	60.62
421.2	61.84
421.4	64.02
421.6	66.48
421.8	68.75
422.0	68.93
422.2	71.78
422.4	74.41
422.6	77.16
422.8	79.96
423.0	81.05
423.2	82.38
423.4	86.90
423.6	90.90
423.8	93.59
424.0	96.05
424.2	96.70
424.4	98.83
424.6	101.5
424.8	106.5
425.0	110.6
425.2	113.7
425.4	117.8
425.6	123.6
425.8	127.2
426.0	130.5
426.2	132.8
426.4	133.6
426.6	135.3
426.8	140.6
427.0	144.5
427.2	148.7
427.4	152.3
427.6	155.7
427.8	159.7
428.0	164.6
428.2	169.6
428.4	174.3
428.6	177.5
428.8	180.9
429.0	185.3
429.2	191.4
429.4	197.8
429.6	202.1
429.8	203.9
430.0	208.3
430.2	214.2
430.4	219.4
430.6	222.7
430.8	225.3
431.0	225.3
431.2	230.9
431.4	236.8
431.6	239.5
431.8	242.9
432.0	247.3
432.2	254.5
432.4	263.1
432.6	271.4
432.8	275.7
433.0	282.8
433.2	287.7
433.4	293.5
433.6	297.2
433.8	303.3
434.0	306.4
434.2	311.5
434.4	315.5
434.6	321.8
434.8	328.9
435.0	339.3
435.2	344.1
435.4	348.3
435.6	352.2
435.8	357.4
436.0	362.2
436.2	370.1
436.4	373.2
436.6	382.1
436.8	387.5
437.0	393.6
437.2	395.5
437.4	400.5
437.6	403.4
437.8	411.4
438.0	418.8
438.2	427.0
438.4	434.4
438.6	443.6
438.8	445.3
439.0	450.5
439.2	454.5
439.4	456.3
439.6	460.8
439.8	467.3
440.0	469.2
440.2	478.3
440.4	486.4
440.6	494.3
440.8	500.0
441.0	505.2
441.2	510.2
441.4	516.6
441.6	523.0
441.8	529.0
442.0	531.9
442.2	534.1
442.4	541.9
442.6	552.2
442.8	562.0
443.0	572.7
443.2	579.1
443.4	583.9
443.6	586.4
443.8	592.6
444.0	596.6
444.2	601.3
444.4	608.0
444.6	617.3
444.8	625.1
445.0	636.5
445.2	645.2
445.4	647.7
445.6	654.5
445.8	662.9
446.0	672.5
446.2	679.0
446.4	692.3
446.6	702.8
446.8	711.1
447.0	719.8
447.2	725.9
447.4	726.2
447.6	733.8
447.8	743.3
448.0	750.5
448.2	760.6
448.4	773.9
448.6	780.3
448.8	788.3
449.0	795.0
449.2	798.9
449.4	803.2
449.6	814.9
449.8	822.8
450.0	839.7
450.2	854.6
450.4	865.8
450.6	875.9
450.8	884.2
451.0	892.3
451.2	906.4
451.4	924.0
451.6	937.9
451.8	949.9
452.0	956.3
452.2	961.6
452.4	972.7
452.6	983.2
452.8	993.3
453.0	1006
453.2	1019
453.4	1035
453.6	1055
453.8	1071
454.0	1084
454.2	1099
454.4	1112
454.6	1133
454.8	1149
455.0	1169
455.2	1184
455.4	1196
455.6	1213
455.8	1232
456.0	1242
456.2	1264
456.4	1279
456.6	1292
456.8	1308
457.0	1325
457.2	1338
457.4	1365
457.6	1390
457.8	1412
458.0	1432
458.2	1451
458.4	1464
458.6	1487
458.8	1511
459.0	1537
459.2	1567
459.4	1597
459.6	1615
459.8	1639
460.0	1661
460.2	1685
460.4	1708
460.6	1736
460.8	1756
461.0	1777
461.2	1799
461.4	1835
461.6	1865
461.8	1894
462.0	1918
462.2	1944
462.4	1965
462.6	2001
462.8	2034
463.0	2065
463.2	2095
463.4	2137
463.6	2171
463.8	2203
464.0	2228
464.2	2254
464.4	2277
464.6	2308
464.8	2344
465.0	2380
465.2	2419
465.4	2463
465.6	2499
465.8	2535
466.0	2571
466.2	2601
466.4	2641
466.6	2680
466.8	2719
467.0	2762
467.2	2803
467.4	2837
467.6	2887
467.8	2934
468.0	2980
468.2	3020
468.4	3052
468.6	3096
468.8	3134
469.0	3186
469.2	3230
469.4	3271
469.6	3306
469.8	3358
470.0	3394
470.2	3445
470.4	3485
470.6	3540
470.8	3586
471.0	3635
471.2	3678
471.4	3721
471.6	3759
471.8	3809
472.0	3861
472.2	3915
472.4	3970
472.6	4030
472.8	4081
473.0	4134
473.2	4169
473.4	4218
473.6	4261
473.8	4321
474.0	4384
474.2	4435
474.4	4478
474.6	4536
474.8	4586
475.0	4638
475.2	4689
475.4	4742
475.6	4802
475.8	4859
476.0	4920
476.2	4962
476.4	4998
476.6	5044
476.8	5098
477.0	5160
477.2	5243
477.4	5312
477.6	5354
477.8	5385
478.0	5436
478.2	5485
478.4	5548
478.6	5609
478.8	5659
479.0	5718
479.2	5796
479.4	5846
479.6	5889
479.8	5933
480.0	5974
480.2	6037
480.4	6106
480.6	6157
480.8	6220
481.0	6273
481.2	6319
481.4	6383
481.6	6425
481.8	6456
482.0	6507
482.2	6552
482.4	6601
482.6	6670
482.8	6719
483.0	6761
483.2	6809
483.4	6852
483.6	6911
483.8	6984
484.0	7053
484.2	7108
484.4	7156
484.6	7188
484.8	7215
485.0	7243
485.2	7293
485.4	7338
485.6	7405
485.8	7470
486.0	7512
486.2	7538
486.4	7579
486.6	7624
486.8	7689
487.0	7742
487.2	7792
487.4	7818
487.6	7849
487.8	7880
488.0	7911
488.2	7923
488.4	7975
488.6	8014
488.8	8064
489.0	8129
489.2	8184
489.4	8223
489.6	8266
489.8	8283
490.0	8293
490.2	8324
490.4	8347
490.6	8379
490.8	8424
491.0	8466
491.2	8505
491.4	8547
491.6	8557
491.8	8569
492.0	8604
492.2	8623
492.4	8654
492.6	8686
492.8	8703
493.0	8710
493.2	8742
493.4	8760
493.6	8787
493.8	8821
494.0	8847
494.2	8858
494.4	8872
494.6	8890
494.8	8916
495.0	8949
495.2	8979
495.4	9013
495.6	9034
495.8	9046
496.0	9051
496.2	9074
496.4	9086
496.6	9113
496.8	9125
497.0	9136
497.2	9129
497.4	9141
497.6	9134
497.8	9139
498.0	9139
498.2	9151
498.4	9167
498.6	9194
498.8	9204
499.0	9207
499.2	9216
499.4	9203
499.6	9216
499.8	9233
500.0	9228
500.2	9223
500.4	9220
500.6	9215
500.8	9226
501.0	9232
501.2	9232
501.4	9236
501.6	9220
501.8	9209
502.0	9210
502.2	9215
502.4	9203
502.6	9200
502.8	9192
503.0	9172
503.2	9168
503.4	9165
503.6	9147
503.8	9134
504.0	9130
504.2	9125
504.4	9126
504.6	9121
504.8	9104
505.0	9098
505.2	9080
505.4	9073
505.6	9056
505.8	9048
506.0	9022
506.2	9010
506.4	8993
506.6	8996
506.8	8991
507.0	8987
507.2	8961
507.4	8929
507.6	8907
507.8	8907
508.0	8913
508.2	8895
508.4	8871
508.6	8848
508.8	8816
509.0	8799
509.2	8772
509.4	8734
509.6	8711
509.8	8694
510.0	8680
510.2	8658
510.4	8623
510.6	8598
510.8	8590
511.0	8573
511.2	8588
511.4	8570
511.6	8560
511.8	8527
512.0	8489
512.2	8450
512.4	8442
512.6	8419
512.8	8411
513.0	8392
513.2	8371
513.4	8345
513.6	8304
513.8	8273
514.0	8251
514.2	8227
514.4	8223
514.6	8194
514.8	8154
515.0	8109
515.2	8077
515.4	8037
515.6	8032
515.8	8030
516.0	8023
516.2	8017
516.4	7989
516.6	7963
516.8	7942
517.0	7918
517.2	7872
517.4	7862
517.6	7834
517.8	7829
518.0	7817
518.2	7794
518.4	7753
518.6	7745
518.8	7728
519.0	7719
519.2	7696
519.4	7659
519.6	7613
519.8	7592
520.0	7572
520.2	7572
520.4	7565
520.6	7538
520.8	7500
521.0	7471
521.2	7456
521.4	7435
521.6	7407
521.8	7391
522.0	7383
522.2	7390
522.4	7384
522.6	7360
522.8	7328
523.0	7306
523.2	7283
523.4	7281
523.6	7240
523.8	7228
524.0	7212
524.2	7210
524.4	7197
524.6	7198
524.8	7171
525.0	7159
525.2	7122
525.4	7097
525.6	7058
525.8	7053
526.0	7053
526.2	7055
526.4	7035
526.6	7020
526.8	7002
527.0	6986
527.2	6989
527.4	6986
527.6	6974
527.8	6970
528.0	6958
528.2	6943
528.4	6930
528.6	6923
528.8	6896
529.0	6875
529.2	6853
529.4	6854
529.6	6840
529.8	6850
530.0	6844
530.2	6821
530.4	6795
530.6	6778
530.8	6747
531.0	6731
531.2	6741
531.4	6747
531.6	6753
531.8	6748
532.0	6716
532.2	6688
532.4	6658
532.6	6644
532.8	6646
533.0	6650
533.2	6640
533.4	6648
533.6	6630
533.8	6619
534.0	6616
534.2	6613
534.4	6602
534.6	6584
534.8	6566
535.0	6553
535.2	6539
535.4	6530
535.6	6518
535.8	6495
536.0	6476
536.2	6461
536.4	6454
536.6	6450
536.8	6450
537.0	6451
537.2	6424
537.4	6400
537.6	6377
537.8	6360
538.0	6368
538.2	6365
538.4	6342
538.6	6332
538.8	6313
539.0	6295
539.2	6294
539.4	6292
539.6	6278
539.8	6284
540.0	6266
540.2	6237
540.4	6231
540.6	6214
540.8	6191
541.0	6186
541.2	6166
541.4	6148
541.6	6149
541.8	6135
542.0	6116
542.2	6102
542.4	6086
542.6	6067
542.8	6051
543.0	6031
543.2	5999
543.4	5985
543.6	5978
543.8	5984
544.0	5982
544.2	5966
544.4	5926
544.6	5897
544.8	5876
545.0	5876
545.2	5872
545.4	5861
545.6	5822
545.8	5793
546.0	5777
546.2	5776
546.4	5770
546.6	5744
546.8	5723
547.0	5708
547.2	5698
547.4	5687
547.6	5657
547.8	5619
548.0	5598
548.2	5573
548.4	5552
548.6	5522
548.8	5498
549.0	5495
549.2	5506
549.4	5497
549.6	5475
549.8	5444
550.0	5411
550.2	5397
550.4	5399
550.6	5375
550.8	5345
551.0	5323
551.2	5284
551.4	5264
551.6	5260
551.8	5242
552.0	5223
552.2	5201
552.4	5166
552.6	5140
552.8	5119
553.0	5100
553.2	5089
553.4	5076
553.6	5063
553.8	5058
554.0	5033
554.2	5011
554.4	5005
554.6	4976
554.8	4941
555.0	4917
555.2	4881
555.4	4849
555.6	4829
555.8	4806
556.0	4788
556.2	4787
556.4	4791
556.6	4766
556.8	4741
557.0	4717
557.2	4687
557.4	4666
557.6	4654
557.8	4644
558.0	4635
558.2	4612
558.4	4588
558.6	4561
558.8	4534
559.0	4520
559.2	4492
559.4	4461
559.6	4434
559.8	4411
560.0	4402
560.2	4393
560.4	4379
560.6	4359
560.8	4325
561.0	4295
561.2	4278
561.4	4268
561.6	4258
561.8	4241
562.0	4214
562.2	4198
562.4	4177
562.6	4166
562.8	4151
563.0	4138
563.2	4120
563.4	4098
563.6	4082
563.8	4056
564.0	4036
564.2	4010
564.4	3995
564.6	3975
564.8	3970
565.0	3955
565.2	3940
565.4	3917
565.6	3903
565.8	3894
566.0	3872
566.2	3851
566.4	3833
566.6	3809
566.8	3799
567.0	3800
567.2	3780
567.4	3762
567.6	3739
567.8	3703
568.0	3671
568.2	3649
568.4	3629
568.6	3620
568.8	3612
569.0	3597
569.2	3579
569.4	3566
569.6	3563
569.8	3557
570.0	3542
570.2	3516
570.4	3497
570.6	3479
570.8	3475
571.0	3466
571.2	3445
571.4	3421
571.6	3398
571.8	3373
572.0	3361
572.2	3349
572.4	3343
572.6	3328
572.8	3314
573.0	3293
573.2	3278
573.4	3257
573.6	3237
573.8	3213
574.0	3191
574.2	3173
574.4	3164
574.6	3158
574.8	3145
575.0	3137
575.2	3118
575.4	3109
575.6	3101
575.8	3081
576.0	3071
576.2	3059
576.4	3045
576.6	3038
576.8	3020
577.0	2997
577.2	2989
577.4	2977
577.6	2968
577.8	2955
578.0	2927
578.2	2911
578.4	2909
578.6	2900
578.8	2889
579.0	2871
579.2	2839
579.4	2818
579.6	2809
579.8	2794
580.0	2782
580.2	2768
580.4	2760
580.6	2752
580.8	2742
581.0	2726
581.2	2708
581.4	2689
581.6	2676
581.8	2670
582.0	2659
582.2	2641
582.4	2626
582.6	2605
582.8	2600
583.0	2601
583.2	2594
583.4	2583
583.6	2567
583.8	2556
584.0	2555
584.2	2545
584.4	2525
584.6	2506
584.8	2475
585.0	2464
585.2	2455
585.4	2448
585.6	2445
585.8	2445
586.0	2426
586.2	2403
586.4	2383
586.6	2363
586.8	2359
587.0	2354
587.2	2340
587.4	2327
587.6	2318
587.8	2301
588.0	2284
588.2	2269
588.4	2252
588.6	2246
588.8	2248
589.0	2239
589.2	2221
589.4	2210
589.6	2196
589.8	2180
590.0	2173
590.2	2152
590.4	2136
590.6	2132
590.8	2128
591.0	2115
591.2	2101
591.4	2085
591.6	2077
591.8	2063
592.0	2050
592.2	2035
592.4	2024
592.6	2019
592.8	2012
593.0	1994
593.2	1980
593.4	1973
593.6	1967
593.8	1957
594.0	1945
594.2	1929
594.4	1907
594.6	1896
594.8	1882
595.0	1878
595.2	1876
595.4	1871
595.6	1848
595.8	1825
596.0	1811
596.2	1810
596.4	1807
596.6	1803
596.8	1787
597.0	1773
597.2	1764
597.4	1749
597.6	1732
597.8	1721
598.0	1715
598.2	1715
598.4	1715
598.6	1707
598.8	1690
599.0	1679
599.2	1671
599.4	1668
599.6	1657
599.8	1651
600.0	1641
600.2	1637
600.4	1631
600.6	1616
600.8	1596
601.0	1584
601.2	1576
601.4	1570
601.6	1559
601.8	1546
602.0	1536
602.2	1532
602.4	1530
602.6	1522
602.8	1511
603.0	1492
603.2	1474
603.4	1463
603.6	1456
603.8	1446
604.0	1448
604.2	1440
604.4	1438
604.6	1430
604.8	1416
605.0	1400
605.2	1393
605.4	1386
605.6	1379
605.8	1370
606.0	1357
606.2	1347
606.4	1338
606.6	1334
606.8	1322
607.0	1314
607.2	1306
607.4	1298
607.6	1296
607.8	1294
608.0	1278
608.2	1271
608.4	1260
608.6	1254
608.8	1249
609.0	1240
609.2	1230
609.4	1224
609.6	1215
609.8	1212
610.0	1199
610.2	1189
610.4	1183
610.6	1179
610.8	1175
611.0	1172
611.2	1160
611.4	1149
611.6	1143
611.8	1146
612.0	1142
612.2	1141
612.4	1131
612.6	1119
612.8	1109
613.0	1105
613.2	1094
613.4	1086
613.6	1077
613.8	1071
614.0	1063
614.2	1057
614.4	1055
614.6	1054
614.8	1051
615.0	1041
615.2	1033
615.4	1021
615.6	1018
615.8	1023
616.0	1019
616.2	1009
616.4	1003
616.6	992.6
616.8	984.2
617.0	980.2
617.2	971.7
617.4	968.8
617.6	969.5
617.8	964.2
618.0	953.8
618.2	944.1
618.4	933.0
618.6	933.9
618.8	934.3
619.0	925.5
619.2	914.7
619.4	907.7
619.6	900.1
619.8	898.4
620.0	896.9
620.2	892.6
620.4	887.4
620.6	884.7
620.8	873.7
621.0	868.9
621.2	857.5
621.4	849.4
621.6	845.7
621.8	843.1
622.0	838.4
622.2	838.4
622.4	831.1
622.6	825.1
622.8	821.6
623.0	817.8
623.2	810.9
623.4	801.6
623.6	794.3
623.8	791.5
624.0	793.0
624.2	792.2
624.4	786.7
624.6	778.4
624.8	768.6
625.0	760.8
625.2	758.4
625.4	753.1
625.6	747.2
625.8	743.9
626.0	734.4
626.2	724.2
626.4	723.6
626.6	722.6
626.8	723.0
627.0	722.0
627.2	712.5
627.4	703.8
627.6	699.0
627.8	699.1
628.0	701.4
628.2	697.6
628.4	690.4
628.6	678.5
628.8	670.1
629.0	668.7
629.2	665.9
629.4	665.3
629.6	662.5
629.8	654.6
630.0	650.3
630.2	646.7
630.4	645.2
630.6	645.0
630.8	642.2
631.0	636.6
631.2	628.4
631.4	622.4
631.6	618.7
631.8	614.2
632.0	609.4
632.2	607.2
632.4	603.9
632.6	601.6
632.8	598.6
633.0	592.1
633.2	583.6
633.4	578.1
633.6	573.2
633.8	572.5
634.0	571.6
634.2	572.1
634.4	568.3
634.6	565.5
634.8	563.0
635.0	559.2
635.2	551.4
635.4	547.6
635.6	541.7
635.8	543.3
636.0	543.2
636.2	541.3
636.4	535.0
636.6	529.8
636.8	521.8
637.0	516.5
637.2	512.7
637.4	510.3
637.6	508.4
637.8	513.4
638.0	508.8
638.2	501.5
638.4	495.8
638.6	486.5
638.8	483.3
639.0	487.9
639.2	487.5
639.4	484.7
639.6	479.6
639.8	471.7
640.0	468.1
640.2	467.4
640.4	463.5
640.6	460.0
640.8	458.2
641.0	455.9
641.2	452.7
641.4	452.6
641.6	449.4
641.8	443.3
642.0	438.6
642.2	433.9
642.4	427.8
642.6	425.4
642.8	424.2
643.0	419.6
643.2	416.9
643.4	416.6
643.6	414.6
643.8	411.4
644.0	408.1
644.2	406.8
644.4	404.8
644.6	403.7
644.8	401.1
645.0	400.8
645.2	396.3
645.4	398.6
645.6	393.9
645.8	389.4
646.0	385.5
646.2	383.4
646.4	379.3
646.6	379.2
646.8	372.6
647.0	366.5
647.2	363.0
647.4	360.8
647.6	360.5
647.8	360.7
648.0	358.0
648.2	352.0
648.4	349.7
648.6	347.7
648.8	347.8
649.0	348.2
649.2	346.3
649.4	344.9
649.6	343.2
649.8	340.4
650.0	338.1
650.2	335.4
650.4	330.5
650.6	329.8
650.8	327.1
651.0	321.3
651.2	319.7
651.4	318.6
651.6	317.9
651.8	315.8
652.0	311.9
652.2	306.4
652.4	306.1
652.6	305.6
652.8	305.6
653.0	302.2
653.2	297.4
653.4	295.0
653.6	290.5
653.8	288.5
654.0	287.8
654.2	292.3
654.4	291.7
654.6	291.9
654.8	286.4
655.0	281.2
655.2	277.5
655.4	279.7
655.6	275.4
655.8	272.0
656.0	271.7
656.2	267.2
656.4	262.8
656.6	262.4
656.8	259.5
657.0	257.1
657.2	257.4
657.4	256.9
657.6	254.9
657.8	255.2
658.0	254.8
658.2	254.0
658.4	248.2
658.6	246.7
658.8	241.9
659.0	241.6
659.2	241.7
659.4	240.6
659.6	239.5
659.8	239.3
660.0	237.7
660.2	239.0
660.4	234.9
660.6	232.0
660.8	232.7
661.0	229.8
661.2	228.8
661.4	228.0
661.6	225.1
661.8	224.1
662.0	226.1
662.2	223.5
662.4	219.5
662.6	217.4
662.8	214.5
663.0	214.1
663.2	215.6
663.4	215.7
663.6	212.3
663.8	213.1
664.0	209.2
664.2	207.7
664.4	205.8
664.6	203.2
664.8	199.5
665.0	201.7
665.2	199.2
665.4	198.4
665.6	199.2
665.8	197.9
666.0	196.7
666.2	197.4
666.4	195.0
666.6	192.6
666.8	190.3
667.0	189.4
667.2	188.0
667.4	185.3
667.6	184.6
667.8	183.1
668.0	182.5
668.2	183.5
668.4	182.4
668.6	180.1
668.8	177.5
669.0	175.0
669.2	175.7
669.4	174.1
669.6	175.8
669.8	175.6
670.0	173.3
670.2	171.2
670.4	169.0
670.6	166.8
670.8	168.7
671.0	169.0
671.2	170.8
671.4	170.5
671.6	166.5
671.8	164.0
672.0	160.1
672.2	159.3
672.4	158.4
672.6	157.7
672.8	154.8
673.0	154.2
673.2	151.8
673.4	153.2
673.6	152.5
673.8	153.5
674.0	150.1
674.2	149.3
674.4	148.6
674.6	149.9
674.8	149.0
675.0	149.4
675.2	145.8
675.4	142.9
675.6	142.0
675.8	141.1
676.0	140.0
676.2	140.5
676.4	138.4
676.6	136.7
676.8	136.4
677.0	136.1
677.2	136.2
677.4	137.8
677.6	136.7
677.8	133.8
678.0	130.7
678.2	127.0
678.4	123.5
678.6	125.0
678.8	126.1
679.0	126.9
679.2	127.9
679.4	126.1
679.6	123.7
679.8	122.3
680.0	120.8
680.2	120.0
680.4	119.8
680.6	119.1
680.8	119.1
681.0	119.5
681.2	121.7
681.4	120.7
681.6	119.4
681.8	116.8
682.0	115.8
682.2	114.7
682.4	116.1
682.6	115.7
682.8	115.5
683.0	115.0
683.2	114.9
683.4	113.2
683.6	112.2
683.8	110.7
684.0	109.6
684.2	110.5
684.4	110.3
684.6	110.7
684.8	111.4
685.0	111.0
685.2	110.4
685.4	109.6
685.6	108.6
685.8	108.0
686.0	106.8
686.2	105.6
686.4	104.0
686.6	103.9
686.8	104.5
687.0	104.3
687.2	104.0
687.4	104.0
687.6	104.3
687.8	105.5
688.0	105.1
688.2	103.1
688.4	101.5
688.6	99.43
688.8	99.44
689.0	99.52
689.2	99.58
689.4	98.23
689.6	97.37
689.8	95.01
690.0	94.96
690.2	94.00
690.4	94.27
690.6	93.18
690.8	93.52
691.0	92.18
691.2	91.91
691.4	89.16
691.6	89.30
691.8	87.81
692.0	88.19
692.2	88.46
692.4	89.59
692.6	89.35
692.8	90.11
693.0	88.75
693.2	86.95
693.4	85.94
693.6	87.66
693.8	87.64
694.0	88.13
694.2	87.63
694.4	86.26
694.6	84.42
694.8	83.76
695.0	82.01
695.2	81.33
695.4	82.11
695.6	83.03
695.8	82.96
696.0	83.12
696.2	82.25
696.4	79.94
696.6	79.80
696.8	78.41
697.0	77.77
697.2	78.25
697.4	78.92
697.6	80.15
697.8	79.83
698.0	78.80
698.2	77.27
698.4	76.26
698.6	75.19
698.8	74.90
699.0	74.04
699.2	74.21
699.4	74.71
699.6	73.93
699.8	72.54
700.0	71.87
700.2	73.87
700.4	75.24
700.6	75.88
700.8	74.93
701.0	73.63
701.2	72.17
701.4	72.11
701.6	70.89
701.8	69.86
702.0	69.72
702.2	69.26
702.4	68.44
702.6	69.46
702.8	69.25
703.0	69.67
703.2	69.01
703.4	68.10
703.6	66.84
703.8	66.51
704.0	65.95
704.2	67.42
704.4	67.22
704.6	66.77
704.8	68.23
705.0	67.79
705.2	68.06
705.4	68.45
705.6	68.35
705.8	65.94
706.0	65.90
706.2	65.30
706.4	65.34
706.6	64.80
706.8	66.17
707.0	64.28
707.2	63.61
707.4	63.10
707.6	62.22
707.8	62.63
708.0	63.85
708.2	64.56
708.4	65.59
708.6	66.05
708.8	65.28
709.0	64.78
709.2	63.63
709.4	62.34
709.6	60.83
709.8	60.90
710.0	60.83
710.2	59.94
710.4	60.56
710.6	60.00
710.8	60.79
711.0	61.45
711.2	61.65
711.4	60.37
711.6	60.52
711.8	59.10
712.0	58.47
712.2	57.23
712.4	57.61
712.6	57.77
712.8	59.09
713.0	58.66
713.2	58.86
713.4	58.69
713.6	57.78
713.8	56.89
714.0	56.84
714.2	57.04
714.4	57.14
714.6	57.35
714.8	56.09
715.0	55.34
715.2	53.57
715.4	52.97
715.6	51.59
715.8	50.62
716.0	51.29
716.2	52.47
716.4	52.47
716.6	52.75
716.8	52.94
717.0	51.83
717.2	51.89
717.4	51.44
717.6	50.18
717.8	49.79
718.0	50.71
718.2	50.91
718.4	51.65
718.6	49.66
718.8	47.53
719.0	46.77
719.2	47.77
719.4	47.73
719.6	48.39
719.8	46.73
720.0	46.33
720.2	45.40
720.4	45.21
720.6	43.03
720.8	42.65
721.0	42.33
721.2	42.35
721.4	42.04
721.6	42.87
721.8	42.82
722.0	42.95
722.2	42.38
722.4	41.62
722.6	40.95
722.8	40.91
723.0	41.71
723.2	41.69
723.4	40.97
723.6	41.05
723.8	40.92
724.0	39.87
724.2	38.94
724.4	38.75
724.6	38.11
724.8	38.12
725.0	38.97
725.2	38.60
725.4	37.63
725.6	38.05
725.8	38.21
726.0	38.39
726.2	38.68
726.4	38.19
726.6	36.90
726.8	36.85
727.0	36.72
727.2	36.74
727.4	37.77
727.6	38.36
727.8	37.28
728.0	36.84
728.2	35.70
728.4	35.14
728.6	36.24
728.8	35.81
729.0	36.40
729.2	36.77
729.4	36.83
729.6	37.19
729.8	36.96
730.0	36.34
730.2	37.61
730.4	36.69
730.6	35.64
730.8	34.75
731.0	33.36
731.2	32.88
731.4	34.50
731.6	35.10
731.8	35.07
732.0	34.27
732.2	33.98
732.4	33.94
732.6	33.63
732.8	33.96
733.0	33.94
733.2	32.86
733.4	32.53
733.6	33.37
733.8	32.49
734.0	32.26
734.2	32.20
734.4	32.36
734.6	32.18
734.8	31.99
735.0	31.67
735.2	30.82
735.4	29.64
735.6	29.93
735.8	30.71
736.0	30.71
736.2	31.55
736.4	31.76
736.6	31.48
736.8	30.41
737.0	29.75
737.2	29.04
737.4	28.83
737.6	29.44
737.8	30.65
738.0	30.25
738.2	30.16
738.4	29.96
738.6	30.07
738.8	30.61
739.0	31.50
739.2	30.38
739.4	29.85
739.6	29.26
739.8	27.95
740.0	27.20
740.2	27.25
740.4	26.71
740.6	27.45
740.8	27.42
741.0	26.53
741.2	26.93
741.4	26.61
741.6	26.53
741.8	26.59
742.0	26.88
742.2	26.09
742.4	26.10
742.6	25.34
742.8	25.00
743.0	25.09
743.2	25.94
743.4	25.79
743.6	26.20
743.8	25.91
744.0	25.69
744.2	25.31
744.4	25.03
744.6	24.96
744.8	25.09
745.0	24.29
745.2	24.67
745.4	24.49
745.6	24.31
745.8	24.36
746.0	23.87
746.2	23.08
746.4	23.89
746.6	23.32
746.8	23.63
747.0	24.24
747.2	23.38
747.4	22.44
747.6	22.75
747.8	22.58
748.0	23.26
748.2	23.40
748.4	22.65
748.6	21.84
748.8	21.63
749.0	22.38
749.2	23.10
749.4	23.58
749.6	23.36
749.8	22.38
750.0	21.20
750.2	21.63
750.4	21.95
750.6	22.75
750.8	22.82
751.0	21.73
751.2	20.63
751.4	20.22
751.6	19.64
751.8	19.74
752.0	19.75
752.2	19.99
752.4	20.37
752.6	20.24
752.8	20.82
753.0	21.11
753.2	20.68
753.4	20.79
753.6	20.96
753.8	20.38
754.0	20.24
754.2	20.62
754.4	20.56
754.6	20.76
754.8	20.96
755.0	20.24
755.2	19.37
755.4	19.16
755.6	19.01
755.8	19.45
756.0	19.72
756.2	19.71
756.4	19.97
756.6	20.27
756.8	20.22
757.0	19.58
757.2	19.82
757.4	19.78
757.6	19.47
757.8	19.88
758.0	19.72
758.2	19.22
758.4	20.00
758.6	20.56
758.8	20.79
759.0	21.00
759.2	20.43
759.4	20.43
759.6	20.32
759.8	20.23
760.0	20.63
760.2	20.46
760.4	19.80
760.6	19.70
760.8	19.52
761.0	19.57
761.2	20.32
761.4	20.58
761.6	20.55
761.8	20.24
762.0	20.23
762.2	20.19
762.4	20.68
762.6	20.61
762.8	20.51
763.0	20.59
763.2	20.65
763.4	19.93
763.6	19.99
763.8	19.49
764.0	19.13
764.2	19.52
764.4	19.90
764.6	20.42
764.8	20.52
765.0	20.16
765.2	19.35
765.4	19.72
765.6	19.58
765.8	19.66
766.0	19.11
766.2	18.50
766.4	18.62
766.6	19.40
766.8	19.73
767.0	19.94
767.2	19.62
767.4	19.00
767.6	18.65
767.8	18.54
768.0	18.44
768.2	18.55
768.4	18.66
768.6	18.36
768.8	17.93
769.0	18.82
769.2	18.39
769.4	18.25
769.6	18.14
769.8	17.46
770.0	16.14
770.2	15.76
770.4	14.70
770.6	14.58
770.8	15.19
771.0	15.98
771.2	16.08
771.4	15.97
771.6	15.34
771.8	14.15
772.0	13.39
772.2	13.27
772.4	13.75
772.6	14.25
772.8	14.45
773.0	13.91
773.2	13.37
773.4	13.94
773.6	13.71
773.8	13.30
774.0	13.00
774.2	12.87
774.4	12.67
774.6	13.43
774.8	12.95
775.0	12.44
775.2	12.67
775.4	12.87
775.6	12.99
775.8	13.06
776.0	12.67
776.2	12.10
776.4	12.20
776.6	12.25
776.8	12.49
777.0	12.38
777.2	12.15
777.4	11.96
777.6	11.84
777.8	12.30
778.0	12.12
778.2	12.13
778.4	11.84
778.6	11.83
778.8	11.68
779.0	11.91
779.2	11.84
779.4	12.07
779.6	11.50
779.8	10.59
780.0	10.34
780.2	10.25
780.4	11.15
780.6	11.96
780.8	12.51
781.0	12.16
781.2	11.67
781.4	12.10
781.6	12.74
781.8	12.82
782.0	12.80
782.2	11.81
782.4	10.52
782.6	10.61
782.8	10.79
783.0	10.99
783.2	11.33
783.4	11.49
783.6	12.32
783.8	12.33
784.0	12.44
784.2	12.32
784.4	12.49
784.6	12.36
784.8	12.61
785.0	11.96
785.2	11.85
785.4	10.78
785.6	10.81
785.8	11.07
786.0	11.98
786.2	12.41
786.4	13.22
786.6	12.47
786.8	12.21
787.0	11.67
787.2	11.76
787.4	11.12
787.6	11.24
787.8	11.13
788.0	11.31
788.2	11.17
788.4	11.99
788.6	12.49
788.8	12.27
789.0	12.15
789.2	11.88
789.4	11.15
789.6	10.51
789.8	10.77
790.0	10.88
790.2	11.38
790.4	11.42
790.6	10.97
790.8	10.62
791.0	10.75
791.2	11.23
791.4	11.68
791.6	11.49
791.8	11.53
792.0	11.86
792.2	11.60
792.4	11.30
792.6	11.58
792.8	12.05
793.0	12.07
793.2	12.13
793.4	12.10
793.6	12.09
793.8	12.30
794.0	12.98
794.2	12.43
794.4	12.05
794.6	11.84
794.8	11.81
795.0	11.82
795.2	11.85
795.4	11.78
795.6	11.64
795.8	11.23
796.0	10.79
796.2	10.75
796.4	10.95
796.6	11.42
796.8	11.67
797.0	12.01
797.2	12.12
797.4	12.14
797.6	12.15
797.8	12.38
798.0	12.34
798.2	12.33
798.4	12.35
798.6	11.80
798.8	11.15
799.0	11.37
799.2	11.39
799.4	11.79
799.6	12.40
799.8	12.32
800.0	10.95

