Sample:	'20211010A(EM)
File name:	b-cds 1;15 400v.FDS
Run date:	'14:47:46, 03/22/2023
Operator:	Administrator
Comment:	'

Instrument
Model:	F-4700 FL Spectrophotometer
Serial number:	2019-001
ROM Version:	5J24010 00

Instrument parameters
Measurement type:	Wavelength scan
Scan mode:	Emission
Data mode:	Fluorescence
EX WL:	350.0 nm
EM  Start WL:	370.0 nm
EM  End WL:	800.0 nm
Scan speed:	1200 nm/min
Delay:	0.0 s
EX Slit:	10.0 nm
EM Slit:	10.0 nm
PMT Voltage:	400 V
Response:	0.002 s
Corrected spectra:	Off
Shutter control:	On

Processing performed
Savitsky-Golay smoothed
Smoothing order:	3
Number of points:	7
Number of times:	1

Peak integration
Integration method:	Rectangular
Sensitivity:	1
Threshold:	1.000

Peaks
No.	Start(nm)	Apex(nm)	End(nm)	Height(Data)	Valley(nm)	Valley(Data)
1	370.0	498.0	498.6	474.0	498.6	472.1
2	498.6	500.0	800.0	477.6	800.0	0.744

Data points
nm	Data
370.0	0.459
370.2	0.534
370.4	0.546
370.6	0.522
370.8	0.515
371.0	0.493
371.2	0.486
371.4	0.481
371.6	0.498
371.8	0.493
372.0	0.521
372.2	0.518
372.4	0.517
372.6	0.486
372.8	0.505
373.0	0.494
373.2	0.508
373.4	0.516
373.6	0.515
373.8	0.506
374.0	0.518
374.2	0.490
374.4	0.470
374.6	0.451
374.8	0.477
375.0	0.483
375.2	0.512
375.4	0.521
375.6	0.531
375.8	0.517
376.0	0.535
376.2	0.516
376.4	0.510
376.6	0.519
376.8	0.544
377.0	0.541
377.2	0.543
377.4	0.507
377.6	0.484
377.8	0.474
378.0	0.478
378.2	0.500
378.4	0.534
378.6	0.536
378.8	0.540
379.0	0.522
379.2	0.509
379.4	0.514
379.6	0.519
379.8	0.512
380.0	0.505
380.2	0.498
380.4	0.501
380.6	0.500
380.8	0.512
381.0	0.516
381.2	0.529
381.4	0.530
381.6	0.524
381.8	0.512
382.0	0.510
382.2	0.491
382.4	0.503
382.6	0.522
382.8	0.518
383.0	0.515
383.2	0.500
383.4	0.471
383.6	0.462
383.8	0.489
384.0	0.503
384.2	0.534
384.4	0.525
384.6	0.541
384.8	0.541
385.0	0.527
385.2	0.503
385.4	0.492
385.6	0.462
385.8	0.481
386.0	0.505
386.2	0.519
386.4	0.520
386.6	0.495
386.8	0.495
387.0	0.502
387.2	0.519
387.4	0.536
387.6	0.545
387.8	0.555
388.0	0.559
388.2	0.556
388.4	0.565
388.6	0.534
388.8	0.533
389.0	0.534
389.2	0.522
389.4	0.501
389.6	0.524
389.8	0.518
390.0	0.548
390.2	0.536
390.4	0.554
390.6	0.532
390.8	0.527
391.0	0.509
391.2	0.518
391.4	0.525
391.6	0.566
391.8	0.583
392.0	0.601
392.2	0.576
392.4	0.547
392.6	0.532
392.8	0.522
393.0	0.529
393.2	0.549
393.4	0.552
393.6	0.546
393.8	0.548
394.0	0.549
394.2	0.544
394.4	0.527
394.6	0.534
394.8	0.537
395.0	0.551
395.2	0.565
395.4	0.556
395.6	0.554
395.8	0.539
396.0	0.539
396.2	0.531
396.4	0.547
396.6	0.546
396.8	0.580
397.0	0.593
397.2	0.625
397.4	0.639
397.6	0.652
397.8	0.616
398.0	0.592
398.2	0.569
398.4	0.595
398.6	0.610
398.8	0.615
399.0	0.591
399.2	0.597
399.4	0.576
399.6	0.595
399.8	0.569
400.0	0.582
400.2	0.594
400.4	0.641
400.6	0.638
400.8	0.643
401.0	0.609
401.2	0.615
401.4	0.625
401.6	0.666
401.8	0.673
402.0	0.677
402.2	0.645
402.4	0.622
402.6	0.618
402.8	0.648
403.0	0.680
403.2	0.692
403.4	0.668
403.6	0.677
403.8	0.673
404.0	0.691
404.2	0.700
404.4	0.688
404.6	0.678
404.8	0.709
405.0	0.700
405.2	0.725
405.4	0.733
405.6	0.737
405.8	0.747
406.0	0.780
406.2	0.774
406.4	0.811
406.6	0.835
406.8	0.853
407.0	0.843
407.2	0.846
407.4	0.842
407.6	0.831
407.8	0.852
408.0	0.868
408.2	0.881
408.4	0.889
408.6	0.902
408.8	0.902
409.0	0.927
409.2	0.906
409.4	0.899
409.6	0.894
409.8	0.888
410.0	0.937
410.2	0.949
410.4	0.959
410.6	0.982
410.8	1.010
411.0	0.998
411.2	1.008
411.4	1.026
411.6	1.043
411.8	1.078
412.0	1.128
412.2	1.157
412.4	1.192
412.6	1.224
412.8	1.206
413.0	1.193
413.2	1.183
413.4	1.238
413.6	1.288
413.8	1.329
414.0	1.347
414.2	1.355
414.4	1.363
414.6	1.392
414.8	1.413
415.0	1.499
415.2	1.544
415.4	1.541
415.6	1.576
415.8	1.614
416.0	1.684
416.2	1.796
416.4	1.810
416.6	1.781
416.8	1.774
417.0	1.799
417.2	1.898
417.4	2.023
417.6	2.060
417.8	2.139
418.0	2.201
418.2	2.227
418.4	2.293
418.6	2.414
418.8	2.429
419.0	2.508
419.2	2.589
419.4	2.709
419.6	2.804
419.8	2.896
420.0	2.949
420.2	2.994
420.4	3.097
420.6	3.199
420.8	3.271
421.0	3.315
421.2	3.421
421.4	3.507
421.6	3.646
421.8	3.706
422.0	3.808
422.2	3.935
422.4	4.032
422.6	4.218
422.8	4.337
423.0	4.414
423.2	4.573
423.4	4.798
423.6	4.929
423.8	5.090
424.0	5.154
424.2	5.212
424.4	5.419
424.6	5.694
424.8	5.979
425.0	6.104
425.2	6.235
425.4	6.298
425.6	6.462
425.8	6.553
426.0	6.786
426.2	6.834
426.4	7.084
426.6	7.295
426.8	7.597
427.0	7.761
427.2	7.994
427.4	8.036
427.6	8.344
427.8	8.608
428.0	8.896
428.2	9.113
428.4	9.234
428.6	9.431
428.8	9.738
429.0	10.03
429.2	10.30
429.4	10.57
429.6	10.68
429.8	11.06
430.0	11.25
430.2	11.40
430.4	11.62
430.6	11.88
430.8	12.04
431.0	12.44
431.2	12.71
431.4	12.93
431.6	13.18
431.8	13.45
432.0	13.61
432.2	13.88
432.4	13.99
432.6	14.15
432.8	14.38
433.0	14.74
433.2	15.06
433.4	15.44
433.6	15.62
433.8	15.85
434.0	16.05
434.2	16.44
434.4	16.76
434.6	17.24
434.8	17.67
435.0	17.90
435.2	17.92
435.4	18.09
435.6	18.34
435.8	18.73
436.0	19.28
436.2	19.63
436.4	19.83
436.6	20.01
436.8	20.33
437.0	20.67
437.2	21.09
437.4	21.45
437.6	21.60
437.8	21.81
438.0	22.08
438.2	22.47
438.4	22.79
438.6	23.15
438.8	23.36
439.0	23.66
439.2	24.00
439.4	24.29
439.6	24.57
439.8	24.82
440.0	25.15
440.2	25.43
440.4	25.93
440.6	26.19
440.8	26.36
441.0	26.72
441.2	26.91
441.4	27.27
441.6	27.87
441.8	28.20
442.0	28.34
442.2	28.78
442.4	28.86
442.6	29.08
442.8	29.35
443.0	29.43
443.2	29.63
443.4	30.27
443.6	30.75
443.8	31.21
444.0	31.55
444.2	31.76
444.4	32.01
444.6	32.43
444.8	32.82
445.0	33.18
445.2	33.76
445.4	34.13
445.6	34.39
445.8	34.64
446.0	35.05
446.2	35.33
446.4	35.83
446.6	36.24
446.8	36.79
447.0	37.15
447.2	37.53
447.4	37.83
447.6	37.94
447.8	38.48
448.0	39.25
448.2	39.66
448.4	40.27
448.6	40.75
448.8	41.15
449.0	41.82
449.2	42.54
449.4	42.89
449.6	43.24
449.8	43.54
450.0	43.90
450.2	44.75
450.4	45.54
450.6	46.15
450.8	46.76
451.0	47.18
451.2	47.53
451.4	48.23
451.6	48.61
451.8	49.33
452.0	50.12
452.2	50.86
452.4	51.60
452.6	51.90
452.8	52.38
453.0	52.96
453.2	53.57
453.4	54.62
453.6	55.51
453.8	56.04
454.0	57.02
454.2	57.56
454.4	58.42
454.6	59.24
454.8	59.89
455.0	60.72
455.2	61.93
455.4	62.64
455.6	63.66
455.8	64.29
456.0	64.93
456.2	65.51
456.4	66.52
456.6	67.27
456.8	68.55
457.0	69.56
457.2	70.50
457.4	71.42
457.6	72.64
457.8	73.54
458.0	74.73
458.2	75.84
458.4	77.03
458.6	77.99
458.8	78.69
459.0	79.46
459.2	80.73
459.4	82.37
459.6	84.30
459.8	85.69
460.0	86.72
460.2	87.82
460.4	88.95
460.6	90.30
460.8	91.77
461.0	93.19
461.2	94.50
461.4	96.23
461.6	97.30
461.8	98.88
462.0	100.4
462.2	101.5
462.4	102.8
462.6	104.5
462.8	105.7
463.0	107.4
463.2	109.1
463.4	110.4
463.6	112.0
463.8	113.4
464.0	115.2
464.2	117.3
464.4	119.1
464.6	121.0
464.8	122.8
465.0	124.4
465.2	126.4
465.4	128.0
465.6	129.3
465.8	130.8
466.0	132.9
466.2	135.2
466.4	137.8
466.6	139.8
466.8	142.0
467.0	144.0
467.2	146.1
467.4	148.0
467.6	149.5
467.8	151.5
468.0	153.3
468.2	155.5
468.4	157.9
468.6	160.0
468.8	162.1
469.0	164.4
469.2	166.8
469.4	169.2
469.6	171.4
469.8	173.7
470.0	176.0
470.2	178.1
470.4	180.6
470.6	182.6
470.8	184.8
471.0	187.6
471.2	190.5
471.4	193.1
471.6	195.5
471.8	198.2
472.0	200.2
472.2	202.7
472.4	205.2
472.6	208.0
472.8	210.7
473.0	213.5
473.2	215.8
473.4	218.4
473.6	220.5
473.8	223.5
474.0	226.3
474.2	229.2
474.4	232.1
474.6	235.1
474.8	236.8
475.0	239.1
475.2	241.5
475.4	244.8
475.6	247.5
475.8	250.3
476.0	253.0
476.2	256.0
476.4	258.8
476.6	262.2
476.8	264.4
477.0	266.9
477.2	269.7
477.4	273.1
477.6	275.4
477.8	278.4
478.0	280.9
478.2	283.4
478.4	286.4
478.6	289.3
478.8	292.1
479.0	295.2
479.2	298.4
479.4	301.9
479.6	305.1
479.8	307.1
480.0	309.6
480.2	311.6
480.4	314.4
480.6	318.3
480.8	321.7
481.0	324.7
481.2	327.3
481.4	328.5
481.6	330.4
481.8	333.7
482.0	336.5
482.2	339.5
482.4	342.6
482.6	344.2
482.8	346.6
483.0	349.5
483.2	352.2
483.4	355.0
483.6	358.6
483.8	361.6
484.0	364.6
484.2	366.7
484.4	368.8
484.6	370.7
484.8	373.8
485.0	376.9
485.2	379.4
485.4	382.1
485.6	383.3
485.8	385.0
486.0	387.6
486.2	390.0
486.4	391.2
486.6	393.4
486.8	394.9
487.0	397.4
487.2	400.2
487.4	403.5
487.6	405.3
487.8	406.9
488.0	408.1
488.2	409.8
488.4	411.8
488.6	413.7
488.8	416.1
489.0	418.8
489.2	421.0
489.4	423.1
489.6	424.5
489.8	426.3
490.0	428.7
490.2	431.6
490.4	434.5
490.6	436.0
490.8	434.8
491.0	436.3
491.2	437.3
491.4	439.9
491.6	442.5
491.8	443.9
492.0	444.2
492.2	445.7
492.4	446.6
492.6	448.5
492.8	448.5
493.0	449.7
493.2	451.6
493.4	453.8
493.6	455.0
493.8	455.8
494.0	455.4
494.2	456.5
494.4	458.1
494.6	459.7
494.8	460.8
495.0	461.4
495.2	461.7
495.4	463.5
495.6	465.1
495.8	466.3
496.0	467.5
496.2	467.5
496.4	467.7
496.6	469.2
496.8	469.7
497.0	470.1
497.2	470.7
497.4	471.7
497.6	472.9
497.8	473.9
498.0	474.0
498.2	473.1
498.4	472.5
498.6	472.1
498.8	472.2
499.0	472.6
499.2	473.8
499.4	475.6
499.6	476.4
499.8	477.4
500.0	477.6
500.2	477.1
500.4	477.5
500.6	477.5
500.8	477.0
501.0	476.5
501.2	474.9
501.4	474.2
501.6	473.8
501.8	474.0
502.0	475.2
502.2	474.8
502.4	474.0
502.6	473.9
502.8	473.9
503.0	474.6
503.2	475.1
503.4	474.3
503.6	473.2
503.8	472.2
504.0	471.8
504.2	471.9
504.4	473.2
504.6	473.0
504.8	471.7
505.0	470.3
505.2	467.8
505.4	467.3
505.6	468.3
505.8	467.4
506.0	467.8
506.2	467.2
506.4	465.5
506.6	464.1
506.8	462.2
507.0	460.0
507.2	459.7
507.4	459.1
507.6	458.7
507.8	457.7
508.0	456.5
508.2	455.3
508.4	455.2
508.6	454.7
508.8	453.8
509.0	452.8
509.2	450.6
509.4	449.7
509.6	450.0
509.8	449.8
510.0	448.8
510.2	447.9
510.4	445.5
510.6	444.4
510.8	442.6
511.0	441.8
511.2	440.0
511.4	438.8
511.6	439.0
511.8	439.0
512.0	437.9
512.2	436.7
512.4	434.5
512.6	433.1
512.8	432.1
513.0	431.1
513.2	430.1
513.4	428.3
513.6	427.3
513.8	425.7
514.0	424.0
514.2	422.6
514.4	421.9
514.6	420.7
514.8	420.6
515.0	419.5
515.2	417.9
515.4	416.2
515.6	415.8
515.8	414.4
516.0	413.1
516.2	412.1
516.4	410.6
516.6	410.4
516.8	410.3
517.0	408.8
517.2	406.4
517.4	404.9
517.6	403.8
517.8	403.3
518.0	403.5
518.2	402.5
518.4	401.4
518.6	400.2
518.8	398.7
519.0	396.6
519.2	395.3
519.4	393.2
519.6	392.5
519.8	391.3
520.0	390.8
520.2	389.6
520.4	388.8
520.6	387.9
520.8	386.9
521.0	385.6
521.2	384.4
521.4	382.1
521.6	381.2
521.8	380.9
522.0	380.5
522.2	379.9
522.4	380.1
522.6	379.7
522.8	378.2
523.0	377.1
523.2	375.8
523.4	374.0
523.6	373.3
523.8	372.3
524.0	370.8
524.2	370.3
524.4	370.1
524.6	369.5
524.8	367.5
525.0	365.5
525.2	364.4
525.4	365.2
525.6	365.7
525.8	365.6
526.0	364.4
526.2	363.4
526.4	362.5
526.6	362.7
526.8	361.7
527.0	360.8
527.2	359.9
527.4	359.5
527.6	358.7
527.8	359.0
528.0	359.0
528.2	358.5
528.4	358.2
528.6	357.0
528.8	355.8
529.0	355.3
529.2	354.4
529.4	353.1
529.6	352.1
529.8	350.8
530.0	350.3
530.2	349.7
530.4	349.4
530.6	349.9
530.8	349.6
531.0	349.6
531.2	348.4
531.4	346.8
531.6	346.6
531.8	345.7
532.0	344.7
532.2	344.6
532.4	344.2
532.6	343.7
532.8	343.8
533.0	342.2
533.2	341.6
533.4	341.2
533.6	340.8
533.8	339.5
534.0	338.8
534.2	339.1
534.4	339.7
534.6	339.2
534.8	339.0
535.0	337.9
535.2	336.9
535.4	336.3
535.6	335.7
535.8	334.5
536.0	334.3
536.2	333.8
536.4	332.7
536.6	332.1
536.8	331.4
537.0	331.0
537.2	330.2
537.4	329.7
537.6	329.2
537.8	329.4
538.0	328.4
538.2	327.6
538.4	326.3
538.6	325.1
538.8	324.1
539.0	324.5
539.2	324.3
539.4	324.0
539.6	323.7
539.8	322.8
540.0	321.5
540.2	321.3
540.4	321.1
540.6	320.9
540.8	320.6
541.0	320.0
541.2	318.8
541.4	317.7
541.6	316.4
541.8	315.5
542.0	314.2
542.2	312.9
542.4	311.6
542.6	311.4
542.8	311.2
543.0	311.1
543.2	310.3
543.4	309.2
543.6	307.6
543.8	306.3
544.0	305.8
544.2	305.0
544.4	304.6
544.6	304.1
544.8	302.9
545.0	301.7
545.2	300.7
545.4	299.4
545.6	299.4
545.8	299.2
546.0	298.4
546.2	297.6
546.4	295.7
546.6	294.5
546.8	293.5
547.0	292.9
547.2	292.0
547.4	291.4
547.6	289.6
547.8	289.0
548.0	288.3
548.2	287.7
548.4	286.9
548.6	285.1
548.8	283.3
549.0	281.8
549.2	281.7
549.4	281.5
549.6	281.4
549.8	280.4
550.0	279.3
550.2	277.8
550.4	276.5
550.6	275.3
550.8	274.4
551.0	273.4
551.2	271.7
551.4	270.5
551.6	270.0
551.8	269.7
552.0	268.8
552.2	267.9
552.4	266.2
552.6	264.7
552.8	264.5
553.0	264.0
553.2	263.4
553.4	262.4
553.6	260.4
553.8	258.5
554.0	257.0
554.2	256.1
554.4	255.8
554.6	255.7
554.8	254.6
555.0	253.9
555.2	252.1
555.4	250.3
555.6	248.7
555.8	247.5
556.0	246.0
556.2	245.3
556.4	243.9
556.6	242.5
556.8	242.3
557.0	241.6
557.2	241.3
557.4	240.4
557.6	239.5
557.8	239.0
558.0	237.9
558.2	236.5
558.4	235.5
558.6	234.2
558.8	233.6
559.0	232.9
559.2	232.0
559.4	230.8
559.6	230.0
559.8	229.3
560.0	228.1
560.2	225.8
560.4	224.5
560.6	223.1
560.8	222.9
561.0	222.5
561.2	221.9
561.4	220.7
561.6	219.8
561.8	218.5
562.0	217.9
562.2	216.9
562.4	216.0
562.6	215.3
562.8	214.8
563.0	214.1
563.2	213.5
563.4	212.9
563.6	211.5
563.8	209.7
564.0	208.0
564.2	206.8
564.4	206.4
564.6	206.0
564.8	205.3
565.0	204.2
565.2	202.6
565.4	201.0
565.6	200.3
565.8	199.2
566.0	198.9
566.2	197.7
566.4	197.2
566.6	196.5
566.8	195.8
567.0	195.2
567.2	194.2
567.4	192.5
567.6	191.4
567.8	190.8
568.0	190.1
568.2	189.7
568.4	189.0
568.6	188.1
568.8	187.5
569.0	187.2
569.2	186.0
569.4	184.9
569.6	183.5
569.8	182.2
570.0	181.5
570.2	181.0
570.4	180.3
570.6	179.6
570.8	178.7
571.0	177.2
571.2	176.2
571.4	175.2
571.6	174.4
571.8	173.6
572.0	173.2
572.2	172.9
572.4	172.6
572.6	171.6
572.8	170.5
573.0	169.4
573.2	168.7
573.4	168.1
573.6	167.3
573.8	166.2
574.0	165.6
574.2	165.2
574.4	164.6
574.6	163.5
574.8	162.8
575.0	161.6
575.2	160.8
575.4	160.6
575.6	159.7
575.8	158.9
576.0	158.7
576.2	157.6
576.4	156.7
576.6	155.7
576.8	154.6
577.0	153.9
577.2	153.3
577.4	152.1
577.6	151.8
577.8	151.3
578.0	151.1
578.2	150.3
578.4	149.5
578.6	148.3
578.8	147.6
579.0	146.5
579.2	146.1
579.4	145.1
579.6	145.3
579.8	145.2
580.0	144.4
580.2	143.0
580.4	142.1
580.6	140.9
580.8	141.0
581.0	140.4
581.2	139.7
581.4	138.9
581.6	138.4
581.8	137.8
582.0	137.3
582.2	136.0
582.4	135.1
582.6	134.1
582.8	133.6
583.0	133.0
583.2	132.4
583.4	131.6
583.6	130.9
583.8	130.1
584.0	129.6
584.2	129.1
584.4	128.7
584.6	127.9
584.8	127.5
585.0	127.0
585.2	126.7
585.4	126.2
585.6	125.5
585.8	124.7
586.0	124.0
586.2	123.3
586.4	122.9
586.6	122.0
586.8	121.0
587.0	120.2
587.2	119.4
587.4	118.9
587.6	118.5
587.8	117.8
588.0	117.4
588.2	116.9
588.4	116.6
588.6	116.0
588.8	115.7
589.0	115.0
589.2	114.5
589.4	113.8
589.6	113.2
589.8	112.8
590.0	112.6
590.2	112.0
590.4	111.3
590.6	110.1
590.8	109.3
591.0	108.7
591.2	108.4
591.4	107.9
591.6	107.6
591.8	107.1
592.0	106.4
592.2	105.5
592.4	104.7
592.6	103.6
592.8	103.0
593.0	102.4
593.2	101.8
593.4	101.5
593.6	101.4
593.8	100.8
594.0	100.3
594.2	99.29
594.4	98.41
594.6	97.74
594.8	97.83
595.0	97.19
595.2	97.08
595.4	96.36
595.6	95.65
595.8	95.10
596.0	94.53
596.2	93.78
596.4	93.17
596.6	92.52
596.8	92.18
597.0	91.73
597.2	90.92
597.4	90.15
597.6	89.39
597.8	89.20
598.0	89.33
598.2	88.89
598.4	88.40
598.6	87.54
598.8	87.07
599.0	86.88
599.2	86.70
599.4	86.10
599.6	85.58
599.8	84.33
600.0	83.59
600.2	83.31
600.4	82.61
600.6	82.08
600.8	81.96
601.0	81.05
601.2	80.89
601.4	81.15
601.6	80.34
601.8	79.68
602.0	79.16
602.2	78.25
602.4	77.90
602.6	77.81
602.8	77.30
603.0	76.86
603.2	76.66
603.4	76.08
603.6	75.35
603.8	74.85
604.0	74.19
604.2	73.82
604.4	73.31
604.6	73.01
604.8	72.37
605.0	72.12
605.2	71.65
605.4	71.50
605.6	71.08
605.8	70.90
606.0	70.46
606.2	70.18
606.4	69.50
606.6	68.73
606.8	68.25
607.0	67.67
607.2	67.39
607.4	67.26
607.6	67.15
607.8	66.80
608.0	66.61
608.2	65.96
608.4	65.59
608.6	65.00
608.8	64.47
609.0	64.28
609.2	63.97
609.4	63.38
609.6	63.41
609.8	62.65
610.0	62.10
610.2	61.62
610.4	61.09
610.6	60.66
610.8	60.99
611.0	60.47
611.2	60.39
611.4	60.05
611.6	59.63
611.8	58.98
612.0	58.53
612.2	57.80
612.4	57.33
612.6	57.20
612.8	56.97
613.0	56.71
613.2	56.46
613.4	56.22
613.6	55.85
613.8	55.80
614.0	55.44
614.2	55.04
614.4	54.68
614.6	54.12
614.8	53.62
615.0	53.43
615.2	53.05
615.4	52.75
615.6	52.47
615.8	52.01
616.0	51.84
616.2	51.79
616.4	51.37
616.6	50.95
616.8	50.66
617.0	50.11
617.2	50.05
617.4	49.93
617.6	49.63
617.8	49.22
618.0	49.06
618.2	48.43
618.4	48.35
618.6	48.06
618.8	48.02
619.0	47.69
619.2	47.26
619.4	46.45
619.6	46.17
619.8	45.87
620.0	45.92
620.2	45.74
620.4	45.44
620.6	44.90
620.8	44.72
621.0	44.44
621.2	44.26
621.4	44.32
621.6	44.21
621.8	43.91
622.0	43.55
622.2	43.04
622.4	42.50
622.6	42.37
622.8	42.32
623.0	42.32
623.2	42.05
623.4	41.71
623.6	41.28
623.8	41.01
624.0	40.92
624.2	40.71
624.4	40.37
624.6	40.08
624.8	39.72
625.0	39.56
625.2	39.37
625.4	39.17
625.6	38.89
625.8	38.64
626.0	38.20
626.2	37.90
626.4	37.66
626.6	37.61
626.8	37.22
627.0	36.97
627.2	36.63
627.4	36.44
627.6	36.13
627.8	36.16
628.0	36.03
628.2	35.90
628.4	35.73
628.6	35.43
628.8	34.95
629.0	34.80
629.2	34.50
629.4	34.36
629.6	34.07
629.8	33.71
630.0	33.78
630.2	33.70
630.4	33.52
630.6	33.73
630.8	33.39
631.0	32.89
631.2	32.77
631.4	32.31
631.6	31.91
631.8	31.82
632.0	31.44
632.2	31.03
632.4	31.03
632.6	30.78
632.8	30.55
633.0	30.30
633.2	29.94
633.4	29.79
633.6	29.84
633.8	29.80
634.0	29.86
634.2	29.91
634.4	29.65
634.6	29.59
634.8	29.13
635.0	28.78
635.2	28.50
635.4	28.34
635.6	28.03
635.8	28.01
636.0	27.78
636.2	27.72
636.4	27.40
636.6	27.15
636.8	26.88
637.0	26.73
637.2	26.71
637.4	26.40
637.6	25.99
637.8	25.66
638.0	25.58
638.2	25.57
638.4	25.63
638.6	25.28
638.8	25.02
639.0	24.83
639.2	24.70
639.4	24.53
639.6	24.49
639.8	24.45
640.0	24.28
640.2	24.28
640.4	24.06
640.6	23.93
640.8	23.74
641.0	23.52
641.2	23.12
641.4	22.95
641.6	22.86
641.8	22.94
642.0	22.96
642.2	22.70
642.4	22.56
642.6	22.21
642.8	21.78
643.0	21.54
643.2	21.58
643.4	21.52
643.6	21.63
643.8	21.56
644.0	21.41
644.2	21.25
644.4	21.09
644.6	20.81
644.8	20.63
645.0	20.49
645.2	20.47
645.4	20.46
645.6	20.37
645.8	20.00
646.0	19.75
646.2	19.58
646.4	19.58
646.6	19.59
646.8	19.46
647.0	19.17
647.2	18.87
647.4	18.74
647.6	18.77
647.8	18.69
648.0	18.45
648.2	18.30
648.4	18.13
648.6	18.08
648.8	18.09
649.0	18.06
649.2	17.84
649.4	17.74
649.6	17.66
649.8	17.67
650.0	17.52
650.2	17.36
650.4	17.15
650.6	17.10
650.8	16.97
651.0	16.88
651.2	16.46
651.4	16.36
651.6	16.38
651.8	16.44
652.0	16.38
652.2	16.28
652.4	16.04
652.6	15.93
652.8	15.75
653.0	15.69
653.2	15.66
653.4	15.58
653.6	15.47
653.8	15.26
654.0	15.05
654.2	14.93
654.4	14.77
654.6	14.67
654.8	14.61
655.0	14.68
655.2	14.76
655.4	14.69
655.6	14.51
655.8	14.34
656.0	14.15
656.2	14.08
656.4	14.09
656.6	14.08
656.8	14.12
657.0	13.94
657.2	13.61
657.4	13.48
657.6	13.44
657.8	13.37
658.0	13.41
658.2	13.34
658.4	13.11
658.6	13.15
658.8	13.20
659.0	13.15
659.2	13.09
659.4	12.94
659.6	12.59
659.8	12.48
660.0	12.25
660.2	12.23
660.4	12.20
660.6	12.32
660.8	12.27
661.0	12.19
661.2	11.90
661.4	11.86
661.6	11.79
661.8	11.86
662.0	11.73
662.2	11.67
662.4	11.63
662.6	11.60
662.8	11.39
663.0	11.28
663.2	11.04
663.4	10.99
663.6	10.93
663.8	10.88
664.0	10.66
664.2	10.73
664.4	10.80
664.6	10.83
664.8	10.81
665.0	10.57
665.2	10.32
665.4	10.32
665.6	10.31
665.8	10.26
666.0	10.31
666.2	10.21
666.4	10.26
666.6	10.26
666.8	10.07
667.0	9.969
667.2	10.02
667.4	10.06
667.6	9.999
667.8	9.766
668.0	9.569
668.2	9.474
668.4	9.471
668.6	9.417
668.8	9.258
669.0	9.163
669.2	9.253
669.4	9.204
669.6	9.149
669.8	9.104
670.0	9.102
670.2	9.012
670.4	8.995
670.6	8.945
670.8	8.839
671.0	8.797
671.2	8.868
671.4	8.701
671.6	8.585
671.8	8.536
672.0	8.495
672.2	8.347
672.4	8.288
672.6	8.147
672.8	8.112
673.0	8.113
673.2	8.148
673.4	8.160
673.6	8.050
673.8	7.872
674.0	7.816
674.2	7.690
674.4	7.644
674.6	7.764
674.8	7.744
675.0	7.660
675.2	7.619
675.4	7.568
675.6	7.482
675.8	7.458
676.0	7.504
676.2	7.410
676.4	7.327
676.6	7.409
676.8	7.296
677.0	7.198
677.2	7.153
677.4	7.054
677.6	7.058
677.8	7.036
678.0	6.924
678.2	6.834
678.4	6.708
678.6	6.744
678.8	6.832
679.0	6.761
679.2	6.643
679.4	6.565
679.6	6.406
679.8	6.459
680.0	6.469
680.2	6.550
680.4	6.537
680.6	6.578
680.8	6.480
681.0	6.409
681.2	6.258
681.4	6.238
681.6	6.252
681.8	6.333
682.0	6.330
682.2	6.337
682.4	6.299
682.6	6.211
682.8	6.191
683.0	6.155
683.2	6.068
683.4	6.033
683.6	5.989
683.8	5.891
684.0	5.867
684.2	5.883
684.4	5.765
684.6	5.727
684.8	5.744
685.0	5.796
685.2	5.899
685.4	5.950
685.6	5.797
685.8	5.695
686.0	5.688
686.2	5.706
686.4	5.630
686.6	5.573
686.8	5.459
687.0	5.389
687.2	5.449
687.4	5.484
687.6	5.402
687.8	5.434
688.0	5.393
688.2	5.378
688.4	5.343
688.6	5.282
688.8	5.333
689.0	5.317
689.2	5.250
689.4	5.203
689.6	5.094
689.8	4.998
690.0	5.042
690.2	4.977
690.4	5.026
690.6	5.044
690.8	5.030
691.0	5.021
691.2	5.026
691.4	4.978
691.6	4.954
691.8	4.923
692.0	4.850
692.2	4.848
692.4	4.874
692.6	4.881
692.8	4.841
693.0	4.830
693.2	4.768
693.4	4.666
693.6	4.576
693.8	4.582
694.0	4.502
694.2	4.532
694.4	4.614
694.6	4.537
694.8	4.504
695.0	4.525
695.2	4.448
695.4	4.501
695.6	4.591
695.8	4.537
696.0	4.507
696.2	4.379
696.4	4.298
696.6	4.299
696.8	4.276
697.0	4.244
697.2	4.275
697.4	4.221
697.6	4.196
697.8	4.266
698.0	4.296
698.2	4.281
698.4	4.241
698.6	4.126
698.8	4.012
699.0	3.993
699.2	4.088
699.4	4.118
699.6	4.088
699.8	4.001
700.0	3.870
700.2	3.809
700.4	3.866
700.6	3.908
700.8	3.887
701.0	3.902
701.2	3.861
701.4	3.843
701.6	3.797
701.8	3.783
702.0	3.723
702.2	3.747
702.4	3.751
702.6	3.721
702.8	3.677
703.0	3.650
703.2	3.586
703.4	3.644
703.6	3.750
703.8	3.862
704.0	3.864
704.2	3.812
704.4	3.693
704.6	3.638
704.8	3.676
705.0	3.664
705.2	3.608
705.4	3.591
705.6	3.543
705.8	3.557
706.0	3.538
706.2	3.495
706.4	3.496
706.6	3.455
706.8	3.413
707.0	3.476
707.2	3.495
707.4	3.542
707.6	3.562
707.8	3.518
708.0	3.484
708.2	3.500
708.4	3.498
708.6	3.507
708.8	3.539
709.0	3.514
709.2	3.421
709.4	3.423
709.6	3.387
709.8	3.425
710.0	3.480
710.2	3.438
710.4	3.296
710.6	3.259
710.8	3.272
711.0	3.375
711.2	3.396
711.4	3.367
711.6	3.277
711.8	3.204
712.0	3.158
712.2	3.226
712.4	3.227
712.6	3.269
712.8	3.261
713.0	3.254
713.2	3.202
713.4	3.201
713.6	3.225
713.8	3.212
714.0	3.181
714.2	3.206
714.4	3.126
714.6	3.021
714.8	3.015
715.0	2.913
715.2	2.852
715.4	2.979
715.6	3.045
715.8	2.983
716.0	2.987
716.2	2.948
716.4	2.847
716.6	2.931
716.8	2.991
717.0	2.890
717.2	2.830
717.4	2.796
717.6	2.722
717.8	2.690
718.0	2.736
718.2	2.716
718.4	2.641
718.6	2.693
718.8	2.686
719.0	2.696
719.2	2.773
719.4	2.747
719.6	2.607
719.8	2.516
720.0	2.465
720.2	2.469
720.4	2.505
720.6	2.528
720.8	2.494
721.0	2.440
721.2	2.468
721.4	2.445
721.6	2.441
721.8	2.410
722.0	2.400
722.2	2.392
722.4	2.369
722.6	2.382
722.8	2.377
723.0	2.338
723.2	2.316
723.4	2.322
723.6	2.289
723.8	2.289
724.0	2.263
724.2	2.213
724.4	2.154
724.6	2.168
724.8	2.172
725.0	2.227
725.2	2.296
725.4	2.364
725.6	2.329
725.8	2.319
726.0	2.195
726.2	2.163
726.4	2.133
726.6	2.181
726.8	2.170
727.0	2.217
727.2	2.130
727.4	2.098
727.6	2.041
727.8	2.054
728.0	2.032
728.2	2.025
728.4	1.995
728.6	1.975
728.8	2.013
729.0	2.059
729.2	2.049
729.4	2.041
729.6	2.031
729.8	2.031
730.0	2.056
730.2	2.076
730.4	2.073
730.6	1.999
730.8	1.932
731.0	1.885
731.2	1.863
731.4	1.882
731.6	1.927
731.8	1.905
732.0	1.904
732.2	1.959
732.4	1.985
732.6	2.004
732.8	1.977
733.0	1.913
733.2	1.857
733.4	1.848
733.6	1.806
733.8	1.853
734.0	1.858
734.2	1.845
734.4	1.892
734.6	1.918
734.8	1.888
735.0	1.904
735.2	1.844
735.4	1.814
735.6	1.802
735.8	1.838
736.0	1.847
736.2	1.871
736.4	1.860
736.6	1.875
736.8	1.812
737.0	1.810
737.2	1.780
737.4	1.748
737.6	1.792
737.8	1.797
738.0	1.747
738.2	1.707
738.4	1.658
738.6	1.640
738.8	1.684
739.0	1.677
739.2	1.696
739.4	1.706
739.6	1.684
739.8	1.683
740.0	1.653
740.2	1.609
740.4	1.618
740.6	1.668
740.8	1.695
741.0	1.721
741.2	1.667
741.4	1.625
741.6	1.597
741.8	1.575
742.0	1.575
742.2	1.567
742.4	1.546
742.6	1.545
742.8	1.547
743.0	1.554
743.2	1.555
743.4	1.499
743.6	1.475
743.8	1.446
744.0	1.457
744.2	1.509
744.4	1.524
744.6	1.493
744.8	1.465
745.0	1.451
745.2	1.414
745.4	1.420
745.6	1.426
745.8	1.456
746.0	1.496
746.2	1.516
746.4	1.446
746.6	1.420
746.8	1.386
747.0	1.368
747.2	1.370
747.4	1.366
747.6	1.348
747.8	1.367
748.0	1.405
748.2	1.406
748.4	1.412
748.6	1.412
748.8	1.369
749.0	1.349
749.2	1.348
749.4	1.330
749.6	1.334
749.8	1.338
750.0	1.304
750.2	1.292
750.4	1.293
750.6	1.303
750.8	1.307
751.0	1.318
751.2	1.303
751.4	1.299
751.6	1.277
751.8	1.277
752.0	1.300
752.2	1.279
752.4	1.261
752.6	1.242
752.8	1.234
753.0	1.256
753.2	1.295
753.4	1.298
753.6	1.315
753.8	1.311
754.0	1.325
754.2	1.316
754.4	1.303
754.6	1.307
754.8	1.296
755.0	1.252
755.2	1.248
755.4	1.243
755.6	1.235
755.8	1.251
756.0	1.226
756.2	1.206
756.4	1.203
756.6	1.244
756.8	1.270
757.0	1.318
757.2	1.343
757.4	1.376
757.6	1.343
757.8	1.359
758.0	1.334
758.2	1.294
758.4	1.283
758.6	1.255
758.8	1.254
759.0	1.277
759.2	1.286
759.4	1.280
759.6	1.325
759.8	1.300
760.0	1.290
760.2	1.293
760.4	1.297
760.6	1.279
760.8	1.288
761.0	1.250
761.2	1.256
761.4	1.276
761.6	1.265
761.8	1.282
762.0	1.264
762.2	1.244
762.4	1.252
762.6	1.269
762.8	1.265
763.0	1.289
763.2	1.273
763.4	1.215
763.6	1.213
763.8	1.241
764.0	1.296
764.2	1.345
764.4	1.364
764.6	1.320
764.8	1.258
765.0	1.214
765.2	1.229
765.4	1.251
765.6	1.278
765.8	1.306
766.0	1.268
766.2	1.239
766.4	1.207
766.6	1.181
766.8	1.193
767.0	1.250
767.2	1.269
767.4	1.267
767.6	1.232
767.8	1.200
768.0	1.128
768.2	1.117
768.4	1.073
768.6	1.084
768.8	1.091
769.0	1.109
769.2	1.101
769.4	1.157
769.6	1.133
769.8	1.142
770.0	1.124
770.2	1.067
770.4	1.036
770.6	1.015
770.8	0.947
771.0	0.957
771.2	0.966
771.4	0.986
771.6	1.016
771.8	1.014
772.0	0.987
772.2	0.965
772.4	0.970
772.6	0.987
772.8	0.956
773.0	0.914
773.2	0.885
773.4	0.877
773.6	0.884
773.8	0.912
774.0	0.927
774.2	0.917
774.4	0.895
774.6	0.890
774.8	0.847
775.0	0.860
775.2	0.876
775.4	0.894
775.6	0.884
775.8	0.861
776.0	0.836
776.2	0.839
776.4	0.839
776.6	0.851
776.8	0.854
777.0	0.829
777.2	0.815
777.4	0.821
777.6	0.825
777.8	0.855
778.0	0.850
778.2	0.838
778.4	0.819
778.6	0.819
778.8	0.799
779.0	0.823
779.2	0.808
779.4	0.798
779.6	0.793
779.8	0.795
780.0	0.795
780.2	0.839
780.4	0.885
780.6	0.887
780.8	0.864
781.0	0.811
781.2	0.786
781.4	0.790
781.6	0.804
781.8	0.827
782.0	0.829
782.2	0.820
782.4	0.817
782.6	0.844
782.8	0.837
783.0	0.842
783.2	0.834
783.4	0.822
783.6	0.838
783.8	0.914
784.0	0.911
784.2	0.883
784.4	0.841
784.6	0.818
784.8	0.803
785.0	0.818
785.2	0.839
785.4	0.854
785.6	0.871
785.8	0.879
786.0	0.851
786.2	0.820
786.4	0.820
786.6	0.799
786.8	0.828
787.0	0.865
787.2	0.896
787.4	0.891
787.6	0.859
787.8	0.830
788.0	0.817
788.2	0.841
788.4	0.881
788.6	0.869
788.8	0.851
789.0	0.819
789.2	0.790
789.4	0.796
789.6	0.816
789.8	0.810
790.0	0.823
790.2	0.818
790.4	0.818
790.6	0.826
790.8	0.811
791.0	0.830
791.2	0.852
791.4	0.854
791.6	0.850
791.8	0.844
792.0	0.841
792.2	0.873
792.4	0.855
792.6	0.841
792.8	0.852
793.0	0.827
793.2	0.870
793.4	0.865
793.6	0.856
793.8	0.835
794.0	0.836
794.2	0.793
794.4	0.840
794.6	0.811
794.8	0.835
795.0	0.815
795.2	0.809
795.4	0.798
795.6	0.834
795.8	0.800
796.0	0.802
796.2	0.792
796.4	0.793
796.6	0.819
796.8	0.856
797.0	0.850
797.2	0.864
797.4	0.864
797.6	0.850
797.8	0.843
798.0	0.844
798.2	0.846
798.4	0.837
798.6	0.850
798.8	0.813
799.0	0.805
799.2	0.818
799.4	0.825
799.6	0.813
799.8	0.787
800.0	0.744

