Sample:	'20211010A(EM)
File name:	b-cds 1;15 580v.FDS
Run date:	'14:50:01, 03/22/2023
Operator:	Administrator
Comment:	'

Instrument
Model:	F-4700 FL Spectrophotometer
Serial number:	2019-001
ROM Version:	5J24010 00

Instrument parameters
Measurement type:	Wavelength scan
Scan mode:	Emission
Data mode:	Fluorescence
EX WL:	350.0 nm
EM  Start WL:	370.0 nm
EM  End WL:	800.0 nm
Scan speed:	1200 nm/min
Delay:	0.0 s
EX Slit:	10.0 nm
EM Slit:	10.0 nm
PMT Voltage:	580 V
Response:	0.002 s
Corrected spectra:	Off
Shutter control:	On

Processing performed
Savitsky-Golay smoothed
Smoothing order:	3
Number of points:	7
Number of times:	1

Peak integration
Integration method:	Rectangular
Sensitivity:	1
Threshold:	1.000

Peaks
No.	Start(nm)	Apex(nm)	End(nm)	Height(Data)	Valley(nm)	Valley(Data)
1	370.0	384.4	385.0	5.379	385.0	4.253
2	385.0	397.6	398.4	6.543	398.4	5.261
3	398.4	402.8	403.6	8.240	403.6	7.236
4	403.6	501.8	688.2	7964	688.2	86.00
5	688.2	689.0	690.2	88.84	690.2	81.74
6	690.2	690.8	700.4	85.93	700.4	60.18
7	700.4	701.2	704.8	65.01	704.8	55.80
8	704.8	705.8	706.6	58.85	706.6	55.72
9	706.6	707.6	711.6	57.81	711.6	49.64
10	711.6	712.4	716.2	52.51	716.2	43.06
11	716.2	716.6	728.4	46.44	728.4	30.51
12	728.4	729.2	731.2	31.96	731.2	28.89
13	731.2	731.8	738.2	30.84	738.2	24.38
14	738.2	739.4	741.0	25.56	741.0	22.02
15	741.0	741.6	745.0	23.74	745.0	19.45
16	745.0	745.8	750.2	21.10	750.2	17.84
17	750.2	751.0	755.4	18.92	755.4	16.21
18	755.4	757.6	758.4	18.54	758.4	16.85
19	758.4	758.8	761.8	17.95	761.8	16.68
20	761.8	762.8	766.0	18.75	766.0	15.10
21	766.0	766.8	773.2	16.76	773.2	11.34
22	773.2	774.0	776.2	12.42	776.2	10.05
23	776.2	777.2	780.4	11.27	780.4	8.931
24	780.4	782.2	784.2	10.37	784.2	8.766
25	784.2	788.2	790.6	10.44	790.6	9.143
26	790.6	793.0	795.6	11.18	795.6	9.609
27	795.6	798.4	800.0	10.82	800.0	9.764

Data points
nm	Data
370.0	4.258
370.2	4.127
370.4	4.038
370.6	3.994
370.8	4.190
371.0	3.893
371.2	3.767
371.4	3.790
371.6	3.840
371.8	4.005
372.0	4.285
372.2	4.115
372.4	3.808
372.6	3.578
372.8	3.856
373.0	4.087
373.2	4.143
373.4	3.970
373.6	3.961
373.8	4.026
374.0	4.344
374.2	4.336
374.4	4.455
374.6	4.424
374.8	4.433
375.0	4.349
375.2	4.111
375.4	3.855
375.6	3.850
375.8	4.055
376.0	4.075
376.2	4.044
376.4	3.718
376.6	3.911
376.8	3.887
377.0	4.141
377.2	4.468
377.4	4.495
377.6	4.470
377.8	4.761
378.0	4.575
378.2	4.394
378.4	4.212
378.6	3.918
378.8	3.942
379.0	4.023
379.2	4.094
379.4	4.238
379.6	4.037
379.8	3.938
380.0	4.544
380.2	4.740
380.4	4.794
380.6	4.558
380.8	4.228
381.0	4.180
381.2	4.411
381.4	4.655
381.6	4.722
381.8	4.933
382.0	4.961
382.2	5.359
382.4	5.133
382.6	5.042
382.8	4.839
383.0	4.618
383.2	4.645
383.4	4.714
383.6	4.962
383.8	4.963
384.0	5.159
384.2	5.165
384.4	5.379
384.6	4.818
384.8	4.695
385.0	4.253
385.2	4.305
385.4	4.586
385.6	4.794
385.8	4.748
386.0	4.766
386.2	4.453
386.4	4.418
386.6	4.918
386.8	5.209
387.0	5.269
387.2	5.221
387.4	4.985
387.6	4.861
387.8	5.025
388.0	4.943
388.2	4.835
388.4	4.609
388.6	4.588
388.8	4.645
389.0	4.870
389.2	4.737
389.4	4.948
389.6	4.727
389.8	4.922
390.0	5.071
390.2	5.308
390.4	4.946
390.6	4.704
390.8	4.547
391.0	4.570
391.2	4.407
391.4	4.653
391.6	5.154
391.8	5.005
392.0	5.433
392.2	5.420
392.4	4.790
392.6	4.927
392.8	5.250
393.0	5.311
393.2	5.564
393.4	5.364
393.6	4.956
393.8	4.728
394.0	5.114
394.2	5.444
394.4	5.655
394.6	5.579
394.8	5.308
395.0	5.178
395.2	5.543
395.4	5.628
395.6	5.831
395.8	5.793
396.0	5.426
396.2	5.649
396.4	5.851
396.6	6.006
396.8	5.869
397.0	6.131
397.2	6.140
397.4	6.438
397.6	6.543
397.8	6.158
398.0	5.434
398.2	5.402
398.4	5.261
398.6	5.676
398.8	6.076
399.0	6.593
399.2	6.463
399.4	6.230
399.6	5.872
399.8	6.211
400.0	6.242
400.2	6.967
400.4	7.014
400.6	6.890
400.8	6.696
401.0	6.806
401.2	6.707
401.4	7.009
401.6	7.454
401.8	7.622
402.0	7.749
402.2	7.903
402.4	7.800
402.6	7.916
402.8	8.240
403.0	8.020
403.2	8.035
403.4	7.934
403.6	7.236
403.8	7.428
404.0	7.624
404.2	7.515
404.4	8.066
404.6	8.296
404.8	8.122
405.0	8.154
405.2	7.617
405.4	7.895
405.6	8.337
405.8	8.926
406.0	9.081
406.2	9.045
406.4	8.804
406.6	9.355
406.8	9.585
407.0	10.03
407.2	9.909
407.4	10.03
407.6	10.04
407.8	9.806
408.0	10.24
408.2	10.68
408.4	10.72
408.6	11.12
408.8	11.06
409.0	10.79
409.2	11.00
409.4	11.10
409.6	10.82
409.8	11.51
410.0	11.96
410.2	12.74
410.4	13.04
410.6	13.32
410.8	12.85
411.0	13.26
411.2	13.77
411.4	14.66
411.6	14.29
411.8	14.78
412.0	14.54
412.2	15.34
412.4	16.03
412.6	16.40
412.8	15.94
413.0	16.51
413.2	16.30
413.4	17.36
413.6	17.64
413.8	17.56
414.0	18.06
414.2	18.99
414.4	19.55
414.6	21.25
414.8	21.97
415.0	22.09
415.2	23.43
415.4	24.28
415.6	24.16
415.8	24.64
416.0	24.78
416.2	24.28
416.4	25.79
416.6	26.94
416.8	27.52
417.0	29.55
417.2	30.62
417.4	30.72
417.6	31.51
417.8	31.51
418.0	32.85
418.2	34.72
418.4	34.65
418.6	34.56
418.8	35.47
419.0	36.61
419.2	39.17
419.4	41.20
419.6	41.39
419.8	41.90
420.0	42.94
420.2	44.41
420.4	46.93
420.6	48.80
420.8	50.19
421.0	51.90
421.2	53.69
421.4	55.63
421.6	57.32
421.8	58.39
422.0	61.22
422.2	63.66
422.4	66.35
422.6	68.42
422.8	70.03
423.0	71.51
423.2	72.77
423.4	73.36
423.6	74.90
423.8	78.13
424.0	82.20
424.2	86.73
424.4	88.99
424.6	91.34
424.8	93.62
425.0	96.69
425.2	99.19
425.4	103.7
425.6	105.8
425.8	107.0
426.0	109.1
426.2	111.2
426.4	114.0
426.6	119.3
426.8	123.0
427.0	124.6
427.2	127.3
427.4	130.8
427.6	133.4
427.8	138.4
428.0	143.4
428.2	146.2
428.4	151.0
428.6	155.5
428.8	158.6
429.0	163.3
429.2	166.4
429.4	169.2
429.6	173.6
429.8	177.8
430.0	181.8
430.2	187.3
430.4	191.3
430.6	197.1
430.8	199.6
431.0	202.8
431.2	206.9
431.4	212.3
431.6	217.2
431.8	223.6
432.0	223.7
432.2	225.3
432.4	228.4
432.6	231.6
432.8	237.0
433.0	240.9
433.2	244.8
433.4	250.4
433.6	252.8
433.8	256.3
434.0	264.0
434.2	268.7
434.4	275.7
434.6	282.9
434.8	284.3
435.0	288.3
435.2	293.7
435.4	298.0
435.6	303.1
435.8	310.5
436.0	314.4
436.2	319.6
436.4	323.8
436.6	327.9
436.8	332.8
437.0	339.6
437.2	343.0
437.4	348.2
437.6	351.3
437.8	356.1
438.0	360.5
438.2	366.3
438.4	369.6
438.6	375.9
438.8	379.7
439.0	386.5
439.2	392.1
439.4	396.7
439.6	403.1
439.8	409.4
440.0	413.4
440.2	419.4
440.4	423.3
440.6	429.3
440.8	436.0
441.0	446.1
441.2	450.1
441.4	452.9
441.6	451.2
441.8	454.3
442.0	458.5
442.2	467.0
442.4	475.1
442.6	478.2
442.8	478.0
443.0	479.5
443.2	485.9
443.4	494.2
443.6	509.7
443.8	520.6
444.0	526.5
444.2	524.1
444.4	526.0
444.6	530.9
444.8	537.2
445.0	546.3
445.2	557.4
445.4	559.5
445.6	568.2
445.8	575.3
446.0	576.2
446.2	580.3
446.4	588.3
446.6	595.0
446.8	610.2
447.0	620.4
447.2	625.5
447.4	629.5
447.6	629.2
447.8	637.1
448.0	651.1
448.2	661.8
448.4	669.1
448.6	674.9
448.8	675.6
449.0	679.1
449.2	685.1
449.4	694.0
449.6	706.4
449.8	720.2
450.0	734.3
450.2	744.7
450.4	751.4
450.6	759.1
450.8	767.7
451.0	774.5
451.2	782.2
451.4	792.6
451.6	797.7
451.8	807.6
452.0	818.5
452.2	831.3
452.4	844.6
452.6	858.5
452.8	866.5
453.0	877.9
453.2	888.2
453.4	896.2
453.6	908.1
453.8	922.8
454.0	935.5
454.2	945.6
454.4	957.9
454.6	967.0
454.8	982.8
455.0	1000
455.2	1017
455.4	1027
455.6	1043
455.8	1055
456.0	1071
456.2	1086
456.4	1104
456.6	1122
456.8	1139
457.0	1152
457.2	1165
457.4	1178
457.6	1196
457.8	1216
458.0	1236
458.2	1257
458.4	1275
458.6	1289
458.8	1304
459.0	1316
459.2	1340
459.4	1369
459.6	1395
459.8	1419
460.0	1437
460.2	1454
460.4	1471
460.6	1489
460.8	1512
461.0	1535
461.2	1564
461.4	1594
461.6	1612
461.8	1642
462.0	1666
462.2	1685
462.4	1705
462.6	1730
462.8	1753
463.0	1789
463.2	1813
463.4	1833
463.6	1860
463.8	1891
464.0	1917
464.2	1944
464.4	1971
464.6	1999
464.8	2038
465.0	2073
465.2	2100
465.4	2129
465.6	2161
465.8	2188
466.0	2219
466.2	2251
466.4	2280
466.6	2312
466.8	2346
467.0	2375
467.2	2409
467.4	2453
467.6	2497
467.8	2535
468.0	2565
468.2	2585
468.4	2616
468.6	2653
468.8	2691
469.0	2738
469.2	2775
469.4	2808
469.6	2845
469.8	2884
470.0	2926
470.2	2975
470.4	3016
470.6	3058
470.8	3096
471.0	3146
471.2	3189
471.4	3227
471.6	3257
471.8	3295
472.0	3341
472.2	3392
472.4	3434
472.6	3471
472.8	3502
473.0	3543
473.2	3590
473.4	3631
473.6	3673
473.8	3719
474.0	3765
474.2	3819
474.4	3870
474.6	3916
474.8	3963
475.0	4001
475.2	4036
475.4	4087
475.6	4134
475.8	4193
476.0	4254
476.2	4292
476.4	4325
476.6	4366
476.8	4402
477.0	4451
477.2	4509
477.4	4559
477.6	4606
477.8	4655
478.0	4707
478.2	4757
478.4	4801
478.6	4844
478.8	4888
479.0	4933
479.2	4987
479.4	5026
479.6	5084
479.8	5132
480.0	5171
480.2	5212
480.4	5259
480.6	5308
480.8	5380
481.0	5421
481.2	5445
481.4	5480
481.6	5522
481.8	5581
482.0	5632
482.2	5683
482.4	5715
482.6	5746
482.8	5769
483.0	5804
483.2	5840
483.4	5894
483.6	5948
483.8	6015
484.0	6069
484.2	6127
484.4	6170
484.6	6192
484.8	6213
485.0	6241
485.2	6281
485.4	6339
485.6	6402
485.8	6451
486.0	6487
486.2	6511
486.4	6531
486.6	6559
486.8	6609
487.0	6647
487.2	6680
487.4	6718
487.6	6745
487.8	6791
488.0	6831
488.2	6849
488.4	6877
488.6	6921
488.8	6971
489.0	7020
489.2	7054
489.4	7065
489.6	7081
489.8	7104
490.0	7147
490.2	7174
490.4	7216
490.6	7248
490.8	7276
491.0	7295
491.2	7330
491.4	7352
491.6	7364
491.8	7390
492.0	7410
492.2	7429
492.4	7457
492.6	7484
492.8	7514
493.0	7542
493.2	7560
493.4	7571
493.6	7585
493.8	7618
494.0	7668
494.2	7686
494.4	7699
494.6	7690
494.8	7694
495.0	7707
495.2	7727
495.4	7738
495.6	7752
495.8	7759
496.0	7788
496.2	7814
496.4	7843
496.6	7846
496.8	7838
497.0	7848
497.2	7874
497.4	7905
497.6	7939
497.8	7927
498.0	7914
498.2	7921
498.4	7921
498.6	7926
498.8	7932
499.0	7924
499.2	7930
499.4	7932
499.6	7934
499.8	7922
500.0	7921
500.2	7925
500.4	7939
500.6	7954
500.8	7957
501.0	7935
501.2	7931
501.4	7945
501.6	7961
501.8	7964
502.0	7957
502.2	7942
502.4	7939
502.6	7948
502.8	7936
503.0	7919
503.2	7892
503.4	7880
503.6	7868
503.8	7869
504.0	7873
504.2	7880
504.4	7850
504.6	7838
504.8	7818
505.0	7824
505.2	7837
505.4	7825
505.6	7800
505.8	7768
506.0	7758
506.2	7765
506.4	7782
506.6	7770
506.8	7758
507.0	7731
507.2	7709
507.4	7698
507.6	7692
507.8	7665
508.0	7642
508.2	7628
508.4	7598
508.6	7591
508.8	7592
509.0	7578
509.2	7560
509.4	7537
509.6	7518
509.8	7491
510.0	7495
510.2	7471
510.4	7448
510.6	7429
510.8	7407
511.0	7365
511.2	7361
511.4	7340
511.6	7320
511.8	7314
512.0	7304
512.2	7274
512.4	7267
512.6	7256
512.8	7234
513.0	7212
513.2	7193
513.4	7155
513.6	7148
513.8	7145
514.0	7135
514.2	7115
514.4	7085
514.6	7060
514.8	7025
515.0	7010
515.2	6992
515.4	6973
515.6	6940
515.8	6929
516.0	6888
516.2	6874
516.4	6850
516.6	6842
516.8	6815
517.0	6815
517.2	6787
517.4	6774
517.6	6752
517.8	6729
518.0	6721
518.2	6716
518.4	6687
518.6	6679
518.8	6660
519.0	6631
519.2	6624
519.4	6592
519.6	6567
519.8	6535
520.0	6522
520.2	6505
520.4	6488
520.6	6463
520.8	6446
521.0	6418
521.2	6412
521.4	6379
521.6	6363
521.8	6359
522.0	6364
522.2	6365
522.4	6356
522.6	6346
522.8	6327
523.0	6307
523.2	6291
523.4	6269
523.6	6247
523.8	6241
524.0	6220
524.2	6217
524.4	6203
524.6	6200
524.8	6180
525.0	6158
525.2	6140
525.4	6127
525.6	6101
525.8	6086
526.0	6078
526.2	6066
526.4	6064
526.6	6048
526.8	6038
527.0	6015
527.2	6013
527.4	6006
527.6	6019
527.8	6019
528.0	6010
528.2	5975
528.4	5953
528.6	5931
528.8	5931
529.0	5927
529.2	5930
529.4	5918
529.6	5910
529.8	5902
530.0	5884
530.2	5861
530.4	5860
530.6	5849
530.8	5839
531.0	5839
531.2	5832
531.4	5820
531.6	5819
531.8	5814
532.0	5805
532.2	5793
532.4	5771
532.6	5752
532.8	5732
533.0	5715
533.2	5708
533.4	5721
533.6	5724
533.8	5718
534.0	5694
534.2	5676
534.4	5647
534.6	5645
534.8	5652
535.0	5646
535.2	5639
535.4	5626
535.6	5602
535.8	5585
536.0	5585
536.2	5578
536.4	5565
536.6	5559
536.8	5552
537.0	5547
537.2	5547
537.4	5533
537.6	5513
537.8	5520
538.0	5514
538.2	5514
538.4	5509
538.6	5486
538.8	5475
539.0	5459
539.2	5442
539.4	5433
539.6	5423
539.8	5411
540.0	5400
540.2	5376
540.4	5373
540.6	5370
540.8	5357
541.0	5341
541.2	5316
541.4	5282
541.6	5274
541.8	5284
542.0	5279
542.2	5269
542.4	5248
542.6	5212
542.8	5193
543.0	5192
543.2	5184
543.4	5167
543.6	5152
543.8	5135
544.0	5117
544.2	5107
544.4	5096
544.6	5084
544.8	5078
545.0	5070
545.2	5047
545.4	5027
545.6	5005
545.8	4990
546.0	4970
546.2	4949
546.4	4925
546.6	4902
546.8	4895
547.0	4900
547.2	4892
547.4	4878
547.6	4864
547.8	4843
548.0	4820
548.2	4797
548.4	4780
548.6	4777
548.8	4776
549.0	4771
549.2	4747
549.4	4724
549.6	4703
549.8	4685
550.0	4665
550.2	4649
550.4	4622
550.6	4598
550.8	4583
551.0	4564
551.2	4546
551.4	4531
551.6	4528
551.8	4512
552.0	4501
552.2	4483
552.4	4455
552.6	4436
552.8	4433
553.0	4419
553.2	4406
553.4	4381
553.6	4351
553.8	4339
554.0	4321
554.2	4317
554.4	4301
554.6	4264
554.8	4238
555.0	4223
555.2	4205
555.4	4181
555.6	4161
555.8	4135
556.0	4116
556.2	4110
556.4	4101
556.6	4082
556.8	4081
557.0	4064
557.2	4047
557.4	4036
557.6	4015
557.8	4001
558.0	3981
558.2	3951
558.4	3944
558.6	3929
558.8	3920
559.0	3908
559.2	3880
559.4	3859
559.6	3845
559.8	3829
560.0	3827
560.2	3812
560.4	3796
560.6	3778
560.8	3756
561.0	3731
561.2	3707
561.4	3689
561.6	3675
561.8	3655
562.0	3640
562.2	3628
562.4	3613
562.6	3609
562.8	3594
563.0	3575
563.2	3547
563.4	3525
563.6	3502
563.8	3476
564.0	3466
564.2	3462
564.4	3449
564.6	3433
564.8	3424
565.0	3392
565.2	3374
565.4	3363
565.6	3348
565.8	3330
566.0	3327
566.2	3313
566.4	3302
566.6	3291
566.8	3282
567.0	3269
567.2	3256
567.4	3246
567.6	3233
567.8	3209
568.0	3191
568.2	3175
568.4	3162
568.6	3146
568.8	3134
569.0	3120
569.2	3098
569.4	3076
569.6	3068
569.8	3047
570.0	3034
570.2	3022
570.4	3005
570.6	2983
570.8	2974
571.0	2958
571.2	2951
571.4	2942
571.6	2937
571.8	2915
572.0	2900
572.2	2877
572.4	2859
572.6	2840
572.8	2835
573.0	2827
573.2	2821
573.4	2810
573.6	2797
573.8	2785
574.0	2778
574.2	2764
574.4	2755
574.6	2744
574.8	2728
575.0	2710
575.2	2691
575.4	2665
575.6	2665
575.8	2659
576.0	2645
576.2	2624
576.4	2613
576.6	2593
576.8	2585
577.0	2573
577.2	2559
577.4	2543
577.6	2542
577.8	2534
578.0	2521
578.2	2511
578.4	2507
578.6	2493
578.8	2478
579.0	2462
579.2	2442
579.4	2432
579.6	2423
579.8	2408
580.0	2399
580.2	2392
580.4	2387
580.6	2382
580.8	2367
581.0	2349
581.2	2332
581.4	2323
581.6	2310
581.8	2293
582.0	2273
582.2	2256
582.4	2250
582.6	2255
582.8	2249
583.0	2239
583.2	2220
583.4	2202
583.6	2189
583.8	2183
584.0	2177
584.2	2174
584.4	2170
584.6	2161
584.8	2148
585.0	2132
585.2	2114
585.4	2099
585.6	2083
585.8	2064
586.0	2065
586.2	2060
586.4	2046
586.6	2045
586.8	2036
587.0	2024
587.2	2020
587.4	2006
587.6	1987
587.8	1978
588.0	1965
588.2	1960
588.4	1950
588.6	1937
588.8	1924
589.0	1915
589.2	1906
589.4	1899
589.6	1890
589.8	1876
590.0	1862
590.2	1854
590.4	1844
590.6	1840
590.8	1829
591.0	1813
591.2	1803
591.4	1793
591.6	1779
591.8	1773
592.0	1764
592.2	1759
592.4	1754
592.6	1750
592.8	1733
593.0	1716
593.2	1704
593.4	1691
593.6	1685
593.8	1687
594.0	1681
594.2	1675
594.4	1660
594.6	1640
594.8	1628
595.0	1619
595.2	1611
595.4	1606
595.6	1601
595.8	1595
596.0	1579
596.2	1569
596.4	1562
596.6	1554
596.8	1551
597.0	1542
597.2	1530
597.4	1518
597.6	1504
597.8	1492
598.0	1484
598.2	1476
598.4	1473
598.6	1467
598.8	1460
599.0	1452
599.2	1441
599.4	1424
599.6	1417
599.8	1405
600.0	1397
600.2	1395
600.4	1394
600.6	1385
600.8	1379
601.0	1363
601.2	1356
601.4	1349
601.6	1349
601.8	1338
602.0	1326
602.2	1317
602.4	1310
602.6	1298
602.8	1296
603.0	1286
603.2	1279
603.4	1275
603.6	1266
603.8	1258
604.0	1244
604.2	1234
604.4	1226
604.6	1223
604.8	1216
605.0	1215
605.2	1204
605.4	1200
605.6	1196
605.8	1186
606.0	1171
606.2	1169
606.4	1157
606.6	1152
606.8	1144
607.0	1130
607.2	1119
607.4	1116
607.6	1109
607.8	1104
608.0	1096
608.2	1094
608.4	1094
608.6	1088
608.8	1081
609.0	1066
609.2	1055
609.4	1049
609.6	1047
609.8	1046
610.0	1044
610.2	1040
610.4	1033
610.6	1025
610.8	1018
611.0	1011
611.2	1004
611.4	997.7
611.6	991.3
611.8	985.4
612.0	976.4
612.2	969.0
612.4	965.4
612.6	957.9
612.8	957.1
613.0	950.2
613.2	942.5
613.4	939.6
613.6	938.1
613.8	930.0
614.0	926.3
614.2	919.2
614.4	914.3
614.6	904.7
614.8	894.7
615.0	884.6
615.2	882.1
615.4	880.2
615.6	880.5
615.8	872.8
616.0	869.7
616.2	863.4
616.4	856.7
616.6	847.0
616.8	838.8
617.0	834.0
617.2	839.5
617.4	836.6
617.6	828.4
617.8	819.0
618.0	810.9
618.2	808.8
618.4	807.0
618.6	802.5
618.8	797.7
619.0	792.6
619.2	790.3
619.4	785.1
619.6	776.5
619.8	769.7
620.0	767.7
620.2	762.2
620.4	757.0
620.6	752.0
620.8	748.0
621.0	743.2
621.2	742.0
621.4	738.0
621.6	730.9
621.8	727.7
622.0	725.2
622.2	724.0
622.4	716.9
622.6	711.2
622.8	704.7
623.0	703.6
623.2	702.2
623.4	697.3
623.6	691.3
623.8	688.7
624.0	685.7
624.2	685.6
624.4	681.3
624.6	673.4
624.8	669.6
625.0	661.9
625.2	652.9
625.4	649.7
625.6	644.2
625.8	638.1
626.0	633.8
626.2	628.2
626.4	622.7
626.6	625.5
626.8	623.5
627.0	619.0
627.2	615.6
627.4	611.7
627.6	606.7
627.8	602.8
628.0	599.1
628.2	590.4
628.4	588.7
628.6	585.6
628.8	580.7
629.0	577.2
629.2	579.8
629.4	574.4
629.6	573.9
629.8	573.1
630.0	565.6
630.2	563.8
630.4	561.7
630.6	553.5
630.8	544.9
631.0	541.0
631.2	536.5
631.4	534.2
631.6	530.1
631.8	524.7
632.0	521.2
632.2	518.1
632.4	517.8
632.6	513.3
632.8	508.5
633.0	505.0
633.2	505.6
633.4	501.0
633.6	498.3
633.8	494.0
634.0	493.1
634.2	492.8
634.4	496.2
634.6	491.8
634.8	483.6
635.0	473.1
635.2	467.1
635.4	461.5
635.6	462.2
635.8	461.3
636.0	461.0
636.2	462.1
636.4	460.3
636.6	458.1
636.8	454.2
637.0	448.5
637.2	446.6
637.4	445.8
637.6	442.6
637.8	438.1
638.0	431.7
638.2	425.6
638.4	421.2
638.6	419.2
638.8	418.3
639.0	414.5
639.2	412.6
639.4	407.6
639.6	403.4
639.8	402.3
640.0	402.9
640.2	400.8
640.4	399.9
640.6	397.1
640.8	395.4
641.0	390.4
641.2	388.8
641.4	383.8
641.6	380.0
641.8	377.7
642.0	376.9
642.2	373.4
642.4	373.2
642.6	371.5
642.8	370.0
643.0	367.1
643.2	362.4
643.4	360.1
643.6	356.9
643.8	354.6
644.0	349.7
644.2	349.1
644.4	346.5
644.6	349.5
644.8	346.7
645.0	341.1
645.2	335.8
645.4	336.1
645.6	335.9
645.8	337.0
646.0	333.1
646.2	327.7
646.4	323.8
646.6	319.5
646.8	317.2
647.0	317.3
647.2	318.5
647.4	318.9
647.6	316.9
647.8	312.5
648.0	309.1
648.2	308.9
648.4	306.4
648.6	300.6
648.8	298.6
649.0	295.7
649.2	296.0
649.4	299.0
649.6	297.2
649.8	290.3
650.0	288.1
650.2	286.2
650.4	285.7
650.6	285.4
650.8	284.2
651.0	278.2
651.2	274.4
651.4	273.1
651.6	271.6
651.8	269.7
652.0	268.6
652.2	267.3
652.4	266.2
652.6	266.9
652.8	264.7
653.0	259.5
653.2	255.3
653.4	251.7
653.6	250.0
653.8	252.2
654.0	251.8
654.2	249.0
654.4	247.9
654.6	245.6
654.8	244.1
655.0	242.4
655.2	238.5
655.4	235.0
655.6	232.7
655.8	233.3
656.0	234.2
656.2	233.2
656.4	231.5
656.6	229.5
656.8	228.0
657.0	226.9
657.2	226.4
657.4	223.9
657.6	224.2
657.8	225.6
658.0	225.3
658.2	221.2
658.4	217.2
658.6	215.5
658.8	215.5
659.0	214.4
659.2	213.6
659.4	211.5
659.6	208.6
659.8	207.5
660.0	205.8
660.2	200.5
660.4	200.6
660.6	198.9
660.8	196.4
661.0	197.3
661.2	197.9
661.4	197.8
661.6	199.6
661.8	194.7
662.0	192.9
662.2	194.0
662.4	192.9
662.6	192.6
662.8	191.2
663.0	186.7
663.2	185.3
663.4	181.5
663.6	180.8
663.8	178.7
664.0	177.2
664.2	175.3
664.4	175.4
664.6	174.9
664.8	176.6
665.0	174.3
665.2	172.8
665.4	169.4
665.6	169.1
665.8	170.5
666.0	172.1
666.2	169.6
666.4	168.0
666.6	165.7
666.8	164.6
667.0	165.9
667.2	166.1
667.4	161.9
667.6	160.1
667.8	159.5
668.0	160.1
668.2	162.4
668.4	163.1
668.6	160.0
668.8	158.3
669.0	154.5
669.2	153.1
669.4	150.6
669.6	148.2
669.8	146.6
670.0	147.3
670.2	145.9
670.4	147.3
670.6	146.5
670.8	145.7
671.0	144.6
671.2	144.6
671.4	143.2
671.6	140.2
671.8	138.3
672.0	136.0
672.2	135.4
672.4	137.3
672.6	137.3
672.8	137.0
673.0	135.9
673.2	133.8
673.4	133.0
673.6	131.3
673.8	129.8
674.0	130.4
674.2	129.9
674.4	129.6
674.6	128.4
674.8	126.4
675.0	126.2
675.2	126.3
675.4	124.2
675.6	122.4
675.8	120.8
676.0	120.2
676.2	119.9
676.4	119.5
676.6	117.6
676.8	118.6
677.0	117.4
677.2	116.4
677.4	113.1
677.6	111.2
677.8	110.6
678.0	112.0
678.2	111.3
678.4	111.1
678.6	109.0
678.8	108.5
679.0	108.4
679.2	109.4
679.4	109.5
679.6	109.7
679.8	108.2
680.0	106.3
680.2	105.5
680.4	105.3
680.6	103.9
680.8	102.9
681.0	102.3
681.2	101.6
681.4	101.5
681.6	101.3
681.8	101.2
682.0	100.8
682.2	100.8
682.4	99.41
682.6	96.77
682.8	95.36
683.0	96.43
683.2	96.96
683.4	96.98
683.6	97.33
683.8	95.82
684.0	94.57
684.2	94.95
684.4	95.02
684.6	95.56
684.8	96.19
685.0	94.49
685.2	93.09
685.4	92.47
685.6	91.59
685.8	93.09
686.0	92.36
686.2	90.96
686.4	90.00
686.6	89.59
686.8	88.94
687.0	90.19
687.2	89.98
687.4	89.99
687.6	87.51
687.8	87.34
688.0	86.48
688.2	86.00
688.4	86.43
688.6	88.72
688.8	88.19
689.0	88.84
689.2	88.09
689.4	86.38
689.6	84.31
689.8	82.87
690.0	82.03
690.2	81.74
690.4	82.61
690.6	84.67
690.8	85.93
691.0	84.01
691.2	83.59
691.4	80.94
691.6	79.16
691.8	80.03
692.0	79.89
692.2	78.83
692.4	78.51
692.6	77.00
692.8	76.49
693.0	76.90
693.2	76.43
693.4	75.54
693.6	74.36
693.8	73.64
694.0	73.23
694.2	72.93
694.4	73.57
694.6	73.43
694.8	72.71
695.0	71.34
695.2	70.95
695.4	72.26
695.6	72.21
695.8	71.42
696.0	70.20
696.2	68.60
696.4	68.40
696.6	69.67
696.8	68.93
697.0	67.95
697.2	67.65
697.4	67.96
697.6	68.19
697.8	67.88
698.0	67.40
698.2	66.39
698.4	66.75
698.6	66.85
698.8	67.46
699.0	67.78
699.2	66.89
699.4	65.77
699.6	65.06
699.8	63.36
700.0	63.06
700.2	62.25
700.4	60.18
700.6	61.66
700.8	63.14
701.0	64.08
701.2	65.01
701.4	63.95
701.6	62.05
701.8	62.54
702.0	62.07
702.2	61.50
702.4	60.35
702.6	60.20
702.8	60.57
703.0	59.70
703.2	59.50
703.4	59.45
703.6	57.99
703.8	58.69
704.0	58.68
704.2	57.33
704.4	56.48
704.6	56.57
704.8	55.80
705.0	56.91
705.2	57.17
705.4	57.88
705.6	58.81
705.8	58.85
706.0	58.03
706.2	56.58
706.4	55.80
706.6	55.72
706.8	57.21
707.0	57.29
707.2	57.74
707.4	56.89
707.6	57.81
707.8	56.60
708.0	55.66
708.2	54.36
708.4	53.97
708.6	54.59
708.8	55.63
709.0	55.51
709.2	55.01
709.4	53.35
709.6	52.00
709.8	52.05
710.0	51.91
710.2	52.53
710.4	51.81
710.6	51.07
710.8	50.34
711.0	50.00
711.2	50.09
711.4	50.38
711.6	49.64
711.8	51.14
712.0	52.40
712.2	52.17
712.4	52.51
712.6	51.78
712.8	50.17
713.0	49.97
713.2	49.39
713.4	48.12
713.6	49.29
713.8	49.86
714.0	49.60
714.2	48.82
714.4	48.43
714.6	47.76
714.8	48.36
715.0	48.33
715.2	47.92
715.4	46.77
715.6	44.72
715.8	43.75
716.0	43.16
716.2	43.06
716.4	44.56
716.6	46.44
716.8	45.85
717.0	45.09
717.2	44.20
717.4	42.71
717.6	42.28
717.8	42.69
718.0	43.06
718.2	42.80
718.4	43.06
718.6	42.28
718.8	42.49
719.0	41.92
719.2	41.20
719.4	40.02
719.6	38.89
719.8	37.67
720.0	38.40
720.2	39.27
720.4	39.15
720.6	38.94
720.8	39.11
721.0	38.75
721.2	38.17
721.4	36.63
721.6	35.33
721.8	34.98
722.0	36.13
722.2	37.25
722.4	37.05
722.6	35.84
722.8	35.51
723.0	35.03
723.2	34.49
723.4	34.29
723.6	34.74
723.8	35.54
724.0	36.03
724.2	35.20
724.4	34.47
724.6	34.18
724.8	35.08
725.0	34.83
725.2	34.80
725.4	33.49
725.6	32.53
725.8	32.54
726.0	32.85
726.2	32.21
726.4	32.87
726.6	32.80
726.8	32.36
727.0	32.51
727.2	32.73
727.4	32.53
727.6	31.91
727.8	31.87
728.0	31.40
728.2	30.72
728.4	30.51
728.6	31.20
728.8	31.01
729.0	31.45
729.2	31.96
729.4	31.84
729.6	31.34
729.8	31.11
730.0	30.50
730.2	29.63
730.4	30.44
730.6	30.51
730.8	30.26
731.0	29.72
731.2	28.89
731.4	29.11
731.6	30.37
731.8	30.84
732.0	30.63
732.2	29.94
732.4	28.36
732.6	28.05
732.8	28.63
733.0	29.25
733.2	29.51
733.4	29.50
733.6	28.80
733.8	27.97
734.0	27.81
734.2	27.21
734.4	27.26
734.6	28.31
734.8	28.71
735.0	28.05
735.2	27.35
735.4	25.85
735.6	25.36
735.8	26.09
736.0	26.50
736.2	26.29
736.4	26.45
736.6	25.89
736.8	25.73
737.0	25.67
737.2	25.71
737.4	25.66
737.6	25.53
737.8	25.11
738.0	24.42
738.2	24.38
738.4	24.72
738.6	25.38
738.8	25.51
739.0	25.14
739.2	24.92
739.4	25.56
739.6	25.36
739.8	25.13
740.0	24.59
740.2	23.39
740.4	22.99
740.6	22.56
740.8	22.05
741.0	22.02
741.2	23.11
741.4	23.47
741.6	23.74
741.8	22.96
742.0	23.27
742.2	23.11
742.4	22.89
742.6	22.94
742.8	23.01
743.0	22.36
743.2	23.18
743.4	23.76
743.6	22.47
743.8	21.96
744.0	22.02
744.2	21.08
744.4	20.36
744.6	20.55
744.8	19.64
745.0	19.45
745.2	20.10
745.4	20.37
745.6	20.37
745.8	21.10
746.0	21.03
746.2	20.72
746.4	20.36
746.6	19.92
746.8	19.86
747.0	19.68
747.2	20.00
747.4	20.14
747.6	20.63
747.8	20.64
748.0	20.59
748.2	19.54
748.4	19.04
748.6	18.32
748.8	18.77
749.0	18.75
749.2	18.74
749.4	19.24
749.6	18.93
749.8	18.43
750.0	18.15
750.2	17.84
750.4	17.95
750.6	18.58
750.8	18.78
751.0	18.92
751.2	18.78
751.4	18.62
751.6	18.84
751.8	18.09
752.0	17.36
752.2	17.36
752.4	17.56
752.6	17.50
752.8	18.11
753.0	18.10
753.2	17.90
753.4	17.92
753.6	18.02
753.8	17.41
754.0	17.15
754.2	17.01
754.4	17.49
754.6	17.81
754.8	18.02
755.0	17.15
755.2	16.52
755.4	16.21
755.6	16.38
755.8	16.47
756.0	16.95
756.2	17.24
756.4	17.14
756.6	17.40
756.8	17.36
757.0	17.54
757.2	17.84
757.4	18.51
757.6	18.54
757.8	18.24
758.0	17.50
758.2	17.28
758.4	16.85
758.6	17.38
758.8	17.95
759.0	17.88
759.2	17.57
759.4	17.82
759.6	17.70
759.8	17.91
760.0	17.54
760.2	17.03
760.4	16.97
760.6	17.54
760.8	17.84
761.0	18.13
761.2	17.45
761.4	17.09
761.6	16.78
761.8	16.68
762.0	16.95
762.2	17.65
762.4	17.74
762.6	18.29
762.8	18.75
763.0	18.04
763.2	17.99
763.4	18.50
763.6	17.89
763.8	17.72
764.0	17.84
764.2	16.56
764.4	16.06
764.6	15.97
764.8	16.28
765.0	17.24
765.2	17.65
765.4	17.01
765.6	16.10
765.8	15.15
766.0	15.10
766.2	15.74
766.4	16.59
766.6	16.50
766.8	16.76
767.0	16.23
767.2	15.42
767.4	14.93
767.6	15.06
767.8	15.28
768.0	16.17
768.2	15.80
768.4	15.80
768.6	15.15
768.8	14.49
769.0	14.40
769.2	14.26
769.4	14.04
769.6	14.31
769.8	13.91
770.0	14.06
770.2	14.14
770.4	14.55
770.6	14.39
770.8	13.60
771.0	13.08
771.2	13.42
771.4	13.40
771.6	13.82
771.8	13.34
772.0	12.37
772.2	12.19
772.4	11.74
772.6	11.52
772.8	11.37
773.0	11.42
773.2	11.34
773.4	11.72
773.6	11.86
773.8	12.41
774.0	12.42
774.2	11.79
774.4	11.20
774.6	10.64
774.8	10.57
775.0	11.08
775.2	11.56
775.4	11.31
775.6	11.34
775.8	10.58
776.0	10.26
776.2	10.05
776.4	10.20
776.6	10.36
776.8	10.89
777.0	11.24
777.2	11.27
777.4	11.24
777.6	10.71
777.8	10.49
778.0	10.68
778.2	10.89
778.4	10.49
778.6	10.61
778.8	10.31
779.0	10.09
779.2	9.944
779.4	10.20
779.6	10.28
779.8	10.05
780.0	10.27
780.2	9.639
780.4	8.931
780.6	9.006
780.8	9.256
781.0	9.282
781.2	9.513
781.4	9.451
781.6	9.055
781.8	9.614
782.0	10.13
782.2	10.37
782.4	10.25
782.6	9.926
782.8	9.368
783.0	9.561
783.2	9.628
783.4	9.958
783.6	9.593
783.8	9.309
784.0	9.019
784.2	8.766
784.4	9.115
784.6	9.469
784.8	9.761
785.0	9.853
785.2	9.605
785.4	9.694
785.6	10.20
785.8	9.975
786.0	10.25
786.2	9.990
786.4	9.695
786.6	9.729
786.8	10.11
787.0	10.20
787.2	9.924
787.4	9.918
787.6	9.933
787.8	10.09
788.0	10.23
788.2	10.44
788.4	10.21
788.6	10.40
788.8	10.09
789.0	9.912
789.2	9.473
789.4	9.402
789.6	9.547
789.8	10.09
790.0	10.31
790.2	9.769
790.4	9.444
790.6	9.143
790.8	9.186
791.0	9.398
791.2	9.657
791.4	9.724
791.6	9.991
791.8	10.01
792.0	10.03
792.2	9.915
792.4	9.952
792.6	10.40
792.8	10.78
793.0	11.18
793.2	11.05
793.4	10.32
793.6	9.709
793.8	9.671
794.0	9.869
794.2	10.33
794.4	10.30
794.6	10.03
794.8	10.11
795.0	10.04
795.2	10.07
795.4	10.16
795.6	9.609
795.8	9.969
796.0	10.16
796.2	9.869
796.4	9.782
796.6	9.797
796.8	9.867
797.0	10.72
797.2	10.54
797.4	10.08
797.6	9.785
797.8	9.917
798.0	10.44
798.2	10.72
798.4	10.82
798.6	10.60
798.8	10.31
799.0	10.52
799.2	10.20
799.4	9.573
799.6	9.560
799.8	9.664
800.0	9.764

