Sample:	'20211010A(EM)
File name:	b-cds-cho 1;15 500v.FDS
Run date:	'15:00:53, 03/22/2023
Operator:	Administrator
Comment:	'

Instrument
Model:	F-4700 FL Spectrophotometer
Serial number:	2019-001
ROM Version:	5J24010 00

Instrument parameters
Measurement type:	Wavelength scan
Scan mode:	Emission
Data mode:	Fluorescence
EX WL:	350.0 nm
EM  Start WL:	370.0 nm
EM  End WL:	800.0 nm
Scan speed:	1200 nm/min
Delay:	0.0 s
EX Slit:	10.0 nm
EM Slit:	10.0 nm
PMT Voltage:	500 V
Response:	0.002 s
Corrected spectra:	Off
Shutter control:	On

Processing performed
Savitsky-Golay smoothed
Smoothing order:	3
Number of points:	7
Number of times:	1

Peak integration
Integration method:	Rectangular
Sensitivity:	1
Threshold:	1.000

Peaks
No.	Start(nm)	Apex(nm)	End(nm)	Height(Data)	Valley(nm)	Valley(Data)
1	370.0	482.8	483.6	1435	483.6	1429
2	483.6	486.4	488.8	1450	488.8	1434
3	488.8	489.8	688.6	1445	688.6	11.75
4	688.6	690.0	800.0	12.88	800.0	1.872

Data points
nm	Data
370.0	1.225
370.2	1.115
370.4	1.147
370.6	1.253
370.8	1.359
371.0	1.358
371.2	1.352
371.4	1.314
371.6	1.235
371.8	1.162
372.0	1.125
372.2	1.047
372.4	1.171
372.6	1.219
372.8	1.276
373.0	1.278
373.2	1.306
373.4	1.251
373.6	1.242
373.8	1.258
374.0	1.240
374.2	1.299
374.4	1.405
374.6	1.424
374.8	1.399
375.0	1.362
375.2	1.205
375.4	1.207
375.6	1.252
375.8	1.276
376.0	1.319
376.2	1.235
376.4	1.160
376.6	1.223
376.8	1.320
377.0	1.332
377.2	1.374
377.4	1.328
377.6	1.214
377.8	1.153
378.0	1.138
378.2	1.119
378.4	1.211
378.6	1.327
378.8	1.422
379.0	1.386
379.2	1.382
379.4	1.325
379.6	1.350
379.8	1.366
380.0	1.373
380.2	1.340
380.4	1.379
380.6	1.330
380.8	1.346
381.0	1.259
381.2	1.233
381.4	1.298
381.6	1.463
381.8	1.441
382.0	1.489
382.2	1.409
382.4	1.389
382.6	1.401
382.8	1.391
383.0	1.346
383.2	1.363
383.4	1.394
383.6	1.375
383.8	1.424
384.0	1.356
384.2	1.431
384.4	1.409
384.6	1.473
384.8	1.405
385.0	1.463
385.2	1.463
385.4	1.499
385.6	1.500
385.8	1.496
386.0	1.462
386.2	1.491
386.4	1.581
386.6	1.683
386.8	1.688
387.0	1.649
387.2	1.693
387.4	1.605
387.6	1.616
387.8	1.600
388.0	1.463
388.2	1.382
388.4	1.419
388.6	1.442
388.8	1.443
389.0	1.552
389.2	1.539
389.4	1.519
389.6	1.455
389.8	1.523
390.0	1.561
390.2	1.551
390.4	1.532
390.6	1.492
390.8	1.431
391.0	1.539
391.2	1.727
391.4	1.764
391.6	1.843
391.8	1.824
392.0	1.821
392.2	1.757
392.4	1.682
392.6	1.614
392.8	1.604
393.0	1.664
393.2	1.726
393.4	1.804
393.6	1.802
393.8	1.778
394.0	1.736
394.2	1.756
394.4	1.703
394.6	1.769
394.8	1.833
395.0	1.845
395.2	1.878
395.4	1.880
395.6	1.869
395.8	1.782
396.0	1.737
396.2	1.806
396.4	1.987
396.6	1.955
396.8	1.893
397.0	1.815
397.2	1.738
397.4	1.960
397.6	2.178
397.8	2.224
398.0	2.107
398.2	2.001
398.4	1.875
398.6	1.953
398.8	2.059
399.0	2.242
399.2	2.161
399.4	2.001
399.6	1.937
399.8	2.017
400.0	2.153
400.2	2.337
400.4	2.320
400.6	2.239
400.8	2.291
401.0	2.441
401.2	2.512
401.4	2.552
401.6	2.468
401.8	2.474
402.0	2.526
402.2	2.641
402.4	2.874
402.6	2.941
402.8	2.735
403.0	2.764
403.2	2.678
403.4	2.807
403.6	3.038
403.8	3.125
404.0	2.923
404.2	2.949
404.4	2.829
404.6	2.816
404.8	2.715
405.0	2.736
405.2	2.777
405.4	2.967
405.6	3.152
405.8	3.216
406.0	3.228
406.2	3.343
406.4	3.532
406.6	3.489
406.8	3.472
407.0	3.424
407.2	3.400
407.4	3.502
407.6	3.552
407.8	3.436
408.0	3.327
408.2	3.370
408.4	3.384
408.6	3.645
408.8	3.921
409.0	4.085
409.2	4.133
409.4	4.250
409.6	4.260
409.8	4.404
410.0	4.424
410.2	4.445
410.4	4.588
410.6	4.888
410.8	4.844
411.0	4.803
411.2	4.767
411.4	4.834
411.6	5.112
411.8	5.514
412.0	5.450
412.2	5.479
412.4	5.650
412.6	5.572
412.8	5.651
413.0	5.904
413.2	5.778
413.4	5.928
413.6	6.144
413.8	6.189
414.0	6.430
414.2	6.859
414.4	6.825
414.6	6.983
414.8	6.952
415.0	7.060
415.2	7.308
415.4	7.867
415.6	8.255
415.8	8.508
416.0	8.585
416.2	8.570
416.4	8.754
416.6	9.089
416.8	9.182
417.0	9.552
417.2	10.04
417.4	10.23
417.6	10.54
417.8	10.67
418.0	10.78
418.2	11.09
418.4	11.90
418.6	12.31
418.8	12.35
419.0	12.48
419.2	12.57
419.4	12.77
419.6	13.76
419.8	14.41
420.0	14.77
420.2	15.00
420.4	15.02
420.6	15.15
420.8	15.66
421.0	16.01
421.2	16.64
421.4	17.25
421.6	18.17
421.8	18.69
422.0	19.15
422.2	19.64
422.4	20.38
422.6	21.50
422.8	22.74
423.0	23.33
423.2	23.34
423.4	23.48
423.6	24.21
423.8	25.07
424.0	26.64
424.2	27.62
424.4	28.21
424.6	29.13
424.8	30.55
425.0	31.49
425.2	33.27
425.4	33.89
425.6	34.17
425.8	34.90
426.0	35.94
426.2	37.19
426.4	38.69
426.6	39.96
426.8	41.20
427.0	42.49
427.2	44.35
427.4	45.59
427.6	47.13
427.8	48.70
428.0	50.73
428.2	51.62
428.4	53.50
428.6	54.68
428.8	56.48
429.0	58.07
429.2	60.17
429.4	61.99
429.6	64.49
429.8	66.61
430.0	68.20
430.2	70.51
430.4	72.71
430.6	75.53
430.8	78.24
431.0	80.97
431.2	83.53
431.4	86.98
431.6	89.21
431.8	90.90
432.0	91.75
432.2	93.45
432.4	95.86
432.6	100.1
432.8	104.7
433.0	108.4
433.2	110.2
433.4	112.6
433.6	114.2
433.8	117.5
434.0	121.7
434.2	125.2
434.4	128.1
434.6	132.2
434.8	136.2
435.0	140.9
435.2	145.4
435.4	148.2
435.6	151.5
435.8	155.1
436.0	159.3
436.2	162.8
436.4	166.9
436.6	171.9
436.8	176.6
437.0	181.7
437.2	186.4
437.4	190.2
437.6	194.6
437.8	200.5
438.0	204.6
438.2	209.2
438.4	212.9
438.6	218.6
438.8	223.4
439.0	228.6
439.2	233.4
439.4	236.9
439.6	239.7
439.8	245.7
440.0	250.1
440.2	256.3
440.4	263.1
440.6	270.2
440.8	275.9
441.0	282.8
441.2	288.3
441.4	294.0
441.6	300.6
441.8	308.1
442.0	313.2
442.2	319.7
442.4	324.3
442.6	329.2
442.8	334.8
443.0	340.0
443.2	345.8
443.4	354.0
443.6	359.9
443.8	366.2
444.0	371.7
444.2	376.2
444.4	381.7
444.6	390.1
444.8	396.0
445.0	401.8
445.2	408.6
445.4	417.5
445.6	427.1
445.8	436.1
446.0	442.5
446.2	446.2
446.4	450.0
446.6	456.2
446.8	462.7
447.0	467.4
447.2	474.5
447.4	482.3
447.6	489.8
447.8	498.0
448.0	504.7
448.2	509.3
448.4	514.8
448.6	522.0
448.8	529.4
449.0	537.0
449.2	543.0
449.4	548.1
449.6	554.4
449.8	561.9
450.0	572.4
450.2	581.2
450.4	588.7
450.6	594.8
450.8	600.0
451.0	605.5
451.2	613.9
451.4	621.4
451.6	629.2
451.8	636.4
452.0	641.8
452.2	647.7
452.4	653.7
452.6	659.5
452.8	668.6
453.0	677.4
453.2	685.2
453.4	693.7
453.6	699.2
453.8	703.6
454.0	709.3
454.2	717.0
454.4	722.7
454.6	728.6
454.8	734.5
455.0	741.0
455.2	747.8
455.4	759.1
455.6	765.9
455.8	771.9
456.0	779.3
456.2	786.7
456.4	793.4
456.6	799.0
456.8	804.4
457.0	809.8
457.2	818.2
457.4	824.7
457.6	832.5
457.8	836.5
458.0	843.7
458.2	849.7
458.4	857.8
458.6	865.1
458.8	873.3
459.0	879.0
459.2	883.8
459.4	892.6
459.6	903.9
459.8	912.8
460.0	920.5
460.2	926.4
460.4	928.2
460.6	935.1
460.8	940.9
461.0	945.1
461.2	951.4
461.4	959.4
461.6	968.0
461.8	978.5
462.0	986.6
462.2	994.2
462.4	1001
462.6	1003
462.8	1011
463.0	1019
463.2	1023
463.4	1030
463.6	1034
463.8	1038
464.0	1047
464.2	1056
464.4	1064
464.6	1071
464.8	1076
465.0	1081
465.2	1088
465.4	1095
465.6	1102
465.8	1105
466.0	1109
466.2	1111
466.4	1116
466.6	1126
466.8	1133
467.0	1141
467.2	1149
467.4	1154
467.6	1155
467.8	1162
468.0	1164
468.2	1170
468.4	1177
468.6	1185
468.8	1190
469.0	1197
469.2	1201
469.4	1207
469.6	1211
469.8	1211
470.0	1214
470.2	1219
470.4	1226
470.6	1236
470.8	1240
471.0	1242
471.2	1245
471.4	1248
471.6	1255
471.8	1262
472.0	1268
472.2	1275
472.4	1281
472.6	1284
472.8	1290
473.0	1292
473.2	1294
473.4	1302
473.6	1306
473.8	1308
474.0	1309
474.2	1305
474.4	1307
474.6	1317
474.8	1326
475.0	1334
475.2	1337
475.4	1339
475.6	1345
475.8	1350
476.0	1353
476.2	1355
476.4	1356
476.6	1360
476.8	1365
477.0	1369
477.2	1369
477.4	1369
477.6	1368
477.8	1372
478.0	1377
478.2	1385
478.4	1388
478.6	1389
478.8	1388
479.0	1389
479.2	1391
479.4	1397
479.6	1404
479.8	1408
480.0	1408
480.2	1409
480.4	1411
480.6	1414
480.8	1418
481.0	1422
481.2	1420
481.4	1417
481.6	1415
481.8	1415
482.0	1417
482.2	1427
482.4	1432
482.6	1435
482.8	1435
483.0	1432
483.2	1429
483.4	1429
483.6	1429
483.8	1431
484.0	1433
484.2	1436
484.4	1437
484.6	1440
484.8	1442
485.0	1445
485.2	1447
485.4	1447
485.6	1445
485.8	1442
486.0	1440
486.2	1443
486.4	1450
486.6	1450
486.8	1445
487.0	1439
487.2	1436
487.4	1436
487.6	1438
487.8	1438
488.0	1435
488.2	1436
488.4	1435
488.6	1435
488.8	1434
489.0	1437
489.2	1439
489.4	1441
489.6	1444
489.8	1445
490.0	1439
490.2	1438
490.4	1431
490.6	1428
490.8	1429
491.0	1428
491.2	1423
491.4	1426
491.6	1424
491.8	1422
492.0	1421
492.2	1421
492.4	1418
492.6	1415
492.8	1411
493.0	1407
493.2	1402
493.4	1403
493.6	1405
493.8	1406
494.0	1406
494.2	1405
494.4	1396
494.6	1390
494.8	1386
495.0	1384
495.2	1385
495.4	1388
495.6	1389
495.8	1386
496.0	1381
496.2	1375
496.4	1371
496.6	1368
496.8	1366
497.0	1365
497.2	1362
497.4	1357
497.6	1353
497.8	1344
498.0	1340
498.2	1340
498.4	1341
498.6	1337
498.8	1336
499.0	1329
499.2	1329
499.4	1326
499.6	1325
499.8	1323
500.0	1320
500.2	1317
500.4	1315
500.6	1308
500.8	1302
501.0	1297
501.2	1295
501.4	1292
501.6	1288
501.8	1280
502.0	1277
502.2	1274
502.4	1274
502.6	1272
502.8	1269
503.0	1261
503.2	1259
503.4	1255
503.6	1252
503.8	1244
504.0	1241
504.2	1235
504.4	1236
504.6	1237
504.8	1235
505.0	1230
505.2	1222
505.4	1211
505.6	1204
505.8	1203
506.0	1203
506.2	1204
506.4	1201
506.6	1193
506.8	1188
507.0	1184
507.2	1178
507.4	1173
507.6	1171
507.8	1166
508.0	1166
508.2	1160
508.4	1158
508.6	1151
508.8	1149
509.0	1142
509.2	1139
509.4	1135
509.6	1133
509.8	1129
510.0	1123
510.2	1115
510.4	1110
510.6	1106
510.8	1102
511.0	1101
511.2	1098
511.4	1098
511.6	1093
511.8	1089
512.0	1084
512.2	1080
512.4	1073
512.6	1066
512.8	1060
513.0	1056
513.2	1051
513.4	1051
513.6	1045
513.8	1038
514.0	1036
514.2	1031
514.4	1025
514.6	1024
514.8	1018
515.0	1013
515.2	1008
515.4	1005
515.6	1002
515.8	1000
516.0	998.3
516.2	991.3
516.4	985.6
516.6	981.3
516.8	976.0
517.0	971.5
517.2	970.2
517.4	964.4
517.6	960.8
517.8	958.6
518.0	952.6
518.2	948.7
518.4	945.9
518.6	942.9
518.8	940.6
519.0	938.4
519.2	932.1
519.4	929.0
519.6	923.2
519.8	917.7
520.0	913.0
520.2	907.6
520.4	901.8
520.6	896.1
520.8	893.1
521.0	887.8
521.2	882.7
521.4	879.1
521.6	877.1
521.8	872.9
522.0	873.0
522.2	868.8
522.4	863.9
522.6	858.6
522.8	856.7
523.0	852.9
523.2	848.4
523.4	845.8
523.6	844.9
523.8	839.4
524.0	835.4
524.2	829.1
524.4	820.8
524.6	817.9
524.8	816.8
525.0	815.8
525.2	815.5
525.4	814.6
525.6	811.3
525.8	806.8
526.0	799.9
526.2	794.7
526.4	791.9
526.6	787.8
526.8	785.3
527.0	784.4
527.2	781.5
527.4	777.0
527.6	773.3
527.8	767.1
528.0	763.4
528.2	763.9
528.4	760.2
528.6	757.4
528.8	752.4
529.0	748.4
529.2	746.2
529.4	744.5
529.6	738.7
529.8	736.6
530.0	733.1
530.2	731.4
530.4	727.5
530.6	719.7
530.8	715.9
531.0	712.1
531.2	711.7
531.4	709.9
531.6	705.1
531.8	699.6
532.0	700.8
532.2	697.9
532.4	700.7
532.6	697.6
532.8	693.1
533.0	687.8
533.2	683.7
533.4	677.7
533.6	676.3
533.8	673.3
534.0	668.7
534.2	667.3
534.4	668.4
534.6	665.7
534.8	664.7
535.0	663.8
535.2	660.4
535.4	657.6
535.6	653.8
535.8	646.4
536.0	640.8
536.2	638.6
536.4	636.6
536.6	634.6
536.8	634.4
537.0	631.8
537.2	628.0
537.4	625.6
537.6	622.8
537.8	619.9
538.0	618.9
538.2	613.6
538.4	609.8
538.6	606.5
538.8	605.8
539.0	602.9
539.2	599.9
539.4	596.5
539.6	595.6
539.8	592.2
540.0	594.4
540.2	592.4
540.4	590.0
540.6	586.4
540.8	582.5
541.0	577.0
541.2	575.8
541.4	572.9
541.6	572.1
541.8	569.9
542.0	566.2
542.2	562.8
542.4	561.1
542.6	558.9
542.8	558.5
543.0	557.0
543.2	549.6
543.4	546.0
543.6	543.7
543.8	541.4
544.0	540.5
544.2	538.8
544.4	534.1
544.6	531.9
544.8	529.6
545.0	526.0
545.2	523.6
545.4	524.4
545.6	523.3
545.8	521.8
546.0	520.2
546.2	515.1
546.4	511.6
546.6	509.6
546.8	508.2
547.0	505.9
547.2	504.2
547.4	502.4
547.6	499.1
547.8	495.1
548.0	493.9
548.2	489.5
548.4	488.4
548.6	489.0
548.8	485.9
549.0	483.0
549.2	480.8
549.4	477.5
549.6	475.5
549.8	474.4
550.0	471.3
550.2	469.5
550.4	468.5
550.6	465.9
550.8	463.8
551.0	460.6
551.2	456.8
551.4	454.3
551.6	452.7
551.8	451.2
552.0	450.5
552.2	448.2
552.4	445.3
552.6	442.2
552.8	438.5
553.0	437.0
553.2	435.8
553.4	435.0
553.6	434.1
553.8	432.4
554.0	427.6
554.2	426.1
554.4	423.3
554.6	423.2
554.8	421.7
555.0	419.3
555.2	415.3
555.4	413.2
555.6	409.8
555.8	409.4
556.0	408.0
556.2	406.0
556.4	404.1
556.6	401.2
556.8	397.4
557.0	395.4
557.2	394.6
557.4	393.3
557.6	394.2
557.8	391.7
558.0	388.7
558.2	385.9
558.4	381.5
558.6	379.5
558.8	378.8
559.0	378.5
559.2	378.0
559.4	376.2
559.6	373.8
559.8	372.7
560.0	368.9
560.2	366.4
560.4	362.2
560.6	361.3
560.8	361.1
561.0	360.5
561.2	359.0
561.4	358.4
561.6	357.4
561.8	358.1
562.0	356.2
562.2	353.0
562.4	349.2
562.6	346.6
562.8	345.2
563.0	345.4
563.2	343.0
563.4	340.7
563.6	337.7
563.8	334.2
564.0	332.1
564.2	331.5
564.4	329.4
564.6	328.4
564.8	327.5
565.0	325.8
565.2	323.5
565.4	321.8
565.6	320.1
565.8	318.0
566.0	317.2
566.2	316.2
566.4	314.1
566.6	313.6
566.8	312.5
567.0	309.7
567.2	308.0
567.4	306.1
567.6	303.3
567.8	301.7
568.0	300.6
568.2	299.0
568.4	297.7
568.6	297.2
568.8	296.5
569.0	295.7
569.2	294.8
569.4	292.6
569.6	291.4
569.8	290.1
570.0	288.4
570.2	285.6
570.4	283.7
570.6	282.2
570.8	282.6
571.0	281.9
571.2	280.7
571.4	277.5
571.6	276.7
571.8	276.3
572.0	275.1
572.2	272.8
572.4	271.7
572.6	269.2
572.8	267.4
573.0	265.5
573.2	263.6
573.4	261.8
573.6	260.1
573.8	259.2
574.0	258.9
574.2	258.1
574.4	257.3
574.6	256.3
574.8	253.9
575.0	253.0
575.2	252.2
575.4	250.3
575.6	250.0
575.8	247.2
576.0	246.5
576.2	246.3
576.4	244.7
576.6	243.6
576.8	243.9
577.0	241.9
577.2	242.0
577.4	240.2
577.6	239.0
577.8	237.3
578.0	237.1
578.2	235.7
578.4	233.5
578.6	231.1
578.8	229.7
579.0	228.6
579.2	229.3
579.4	228.6
579.6	227.7
579.8	226.2
580.0	223.8
580.2	222.5
580.4	220.9
580.6	220.0
580.8	221.0
581.0	221.1
581.2	220.5
581.4	218.8
581.6	216.6
581.8	214.8
582.0	214.7
582.2	214.7
582.4	213.9
582.6	211.3
582.8	210.2
583.0	209.2
583.2	209.0
583.4	208.3
583.6	207.4
583.8	206.1
584.0	204.9
584.2	203.3
584.4	202.3
584.6	201.1
584.8	200.5
585.0	200.9
585.2	200.6
585.4	199.2
585.6	197.9
585.8	196.2
586.0	194.3
586.2	192.6
586.4	191.7
586.6	190.0
586.8	189.1
587.0	188.8
587.2	188.3
587.4	187.9
587.6	187.5
587.8	185.9
588.0	185.5
588.2	185.3
588.4	183.9
588.6	184.0
588.8	182.9
589.0	181.5
589.2	181.0
589.4	179.8
589.6	178.1
589.8	178.5
590.0	178.6
590.2	176.9
590.4	175.2
590.6	173.0
590.8	171.3
591.0	171.9
591.2	173.0
591.4	171.7
591.6	170.5
591.8	169.3
592.0	168.4
592.2	168.4
592.4	168.2
592.6	167.5
592.8	166.5
593.0	165.4
593.2	164.8
593.4	162.3
593.6	161.3
593.8	159.9
594.0	160.2
594.2	159.9
594.4	160.1
594.6	158.9
594.8	157.8
595.0	155.1
595.2	154.5
595.4	153.6
595.6	154.2
595.8	154.2
596.0	154.0
596.2	151.8
596.4	149.9
596.6	148.8
596.8	147.8
597.0	146.9
597.2	148.3
597.4	148.2
597.6	147.0
597.8	146.2
598.0	145.0
598.2	144.5
598.4	144.6
598.6	142.8
598.8	141.6
599.0	140.1
599.2	139.6
599.4	139.3
599.6	139.1
599.8	137.8
600.0	137.5
600.2	135.8
600.4	135.4
600.6	135.4
600.8	135.3
601.0	134.5
601.2	132.9
601.4	131.7
601.6	132.0
601.8	133.2
602.0	133.0
602.2	131.7
602.4	129.5
602.6	127.6
602.8	126.9
603.0	126.8
603.2	125.9
603.4	125.3
603.6	124.4
603.8	124.8
604.0	125.0
604.2	125.0
604.4	123.7
604.6	123.4
604.8	122.7
605.0	122.0
605.2	119.8
605.4	118.7
605.6	118.2
605.8	118.6
606.0	119.1
606.2	118.8
606.4	117.0
606.6	115.7
606.8	115.1
607.0	113.7
607.2	113.9
607.4	113.7
607.6	113.2
607.8	112.9
608.0	112.6
608.2	111.6
608.4	111.4
608.6	110.5
608.8	110.1
609.0	110.2
609.2	110.2
609.4	108.9
609.6	108.2
609.8	107.3
610.0	105.6
610.2	104.6
610.4	104.7
610.6	103.8
610.8	103.8
611.0	103.0
611.2	102.3
611.4	102.3
611.6	102.4
611.8	102.9
612.0	102.5
612.2	101.6
612.4	100.8
612.6	99.95
612.8	98.69
613.0	98.86
613.2	97.74
613.4	97.46
613.6	96.77
613.8	96.42
614.0	95.77
614.2	95.19
614.4	94.52
614.6	94.36
614.8	94.23
615.0	93.57
615.2	93.44
615.4	93.63
615.6	93.50
615.8	93.37
616.0	92.41
616.2	90.94
616.4	91.15
616.6	90.40
616.8	89.16
617.0	88.34
617.2	87.18
617.4	86.98
617.6	87.59
617.8	86.69
618.0	86.21
618.2	86.10
618.4	86.20
618.6	85.81
618.8	85.21
619.0	83.69
619.2	82.90
619.4	83.13
619.6	83.61
619.8	83.25
620.0	83.08
620.2	82.98
620.4	82.86
620.6	82.68
620.8	81.76
621.0	80.62
621.2	79.52
621.4	78.83
621.6	78.04
621.8	77.60
622.0	77.45
622.2	77.76
622.4	77.90
622.6	77.63
622.8	77.78
623.0	77.19
623.2	76.74
623.4	76.01
623.6	75.56
623.8	74.91
624.0	74.25
624.2	72.52
624.4	72.02
624.6	71.37
624.8	71.45
625.0	71.78
625.2	71.18
625.4	69.85
625.6	69.60
625.8	69.00
626.0	68.83
626.2	68.30
626.4	67.61
626.6	67.22
626.8	67.35
627.0	67.81
627.2	67.79
627.4	67.51
627.6	67.15
627.8	66.25
628.0	65.94
628.2	65.85
628.4	64.50
628.6	64.38
628.8	64.09
629.0	63.83
629.2	63.69
629.4	63.52
629.6	62.43
629.8	62.06
630.0	61.40
630.2	61.49
630.4	61.12
630.6	60.91
630.8	61.18
631.0	60.63
631.2	60.02
631.4	59.99
631.6	59.58
631.8	58.62
632.0	58.44
632.2	57.27
632.4	56.65
632.6	56.34
632.8	56.34
633.0	55.74
633.2	55.85
633.4	56.16
633.6	55.84
633.8	55.52
634.0	54.88
634.2	53.89
634.4	54.15
634.6	54.74
634.8	54.26
635.0	53.46
635.2	51.92
635.4	50.97
635.6	51.16
635.8	51.27
636.0	51.54
636.2	51.27
636.4	51.21
636.6	51.20
636.8	51.07
637.0	49.94
637.2	49.49
637.4	49.05
637.6	49.21
637.8	49.71
638.0	49.71
638.2	48.59
638.4	47.64
638.6	47.35
638.8	47.57
639.0	48.45
639.2	48.14
639.4	47.51
639.6	46.28
639.8	46.15
640.0	45.48
640.2	45.42
640.4	44.77
640.6	44.33
640.8	43.77
641.0	44.10
641.2	42.98
641.4	42.43
641.6	42.06
641.8	42.03
642.0	42.47
642.2	42.33
642.4	41.34
642.6	40.55
642.8	39.95
643.0	39.92
643.2	40.24
643.4	40.02
643.6	40.28
643.8	40.14
644.0	40.22
644.2	39.78
644.4	39.18
644.6	38.27
644.8	38.33
645.0	38.22
645.2	39.08
645.4	39.30
645.6	38.69
645.8	37.35
646.0	36.62
646.2	35.83
646.4	36.51
646.6	37.05
646.8	37.20
647.0	37.15
647.2	36.92
647.4	36.19
647.6	36.17
647.8	36.02
648.0	35.73
648.2	35.44
648.4	35.04
648.6	34.42
648.8	34.33
649.0	34.40
649.2	34.62
649.4	34.51
649.6	34.38
649.8	33.63
650.0	33.17
650.2	32.71
650.4	32.78
650.6	32.74
650.8	32.90
651.0	32.70
651.2	32.46
651.4	32.27
651.6	32.41
651.8	32.43
652.0	32.42
652.2	32.28
652.4	31.62
652.6	31.50
652.8	31.62
653.0	31.39
653.2	31.15
653.4	30.99
653.6	30.55
653.8	30.49
654.0	30.20
654.2	29.66
654.4	29.61
654.6	29.90
654.8	29.62
655.0	29.32
655.2	28.73
655.4	28.33
655.6	28.24
655.8	28.33
656.0	28.08
656.2	27.89
656.4	28.03
656.6	27.95
656.8	27.62
657.0	27.41
657.2	27.39
657.4	27.35
657.6	27.58
657.8	27.40
658.0	26.92
658.2	26.76
658.4	26.74
658.6	26.50
658.8	25.58
659.0	25.18
659.2	25.20
659.4	25.60
659.6	25.88
659.8	25.88
660.0	25.16
660.2	25.04
660.4	25.28
660.6	25.08
660.8	24.63
661.0	24.61
661.2	24.01
661.4	23.94
661.6	24.68
661.8	24.85
662.0	24.61
662.2	24.92
662.4	23.95
662.6	23.78
662.8	24.27
663.0	24.18
663.2	24.20
663.4	24.41
663.6	23.29
663.8	22.77
664.0	22.57
664.2	22.38
664.4	22.67
664.6	22.87
664.8	22.63
665.0	22.55
665.2	22.68
665.4	22.53
665.6	22.03
665.8	21.72
666.0	21.71
666.2	21.66
666.4	22.05
666.6	22.20
666.8	21.87
667.0	21.79
667.2	21.36
667.4	21.07
667.6	20.93
667.8	20.87
668.0	20.81
668.2	20.73
668.4	20.31
668.6	20.48
668.8	20.29
669.0	20.38
669.2	20.04
669.4	19.65
669.6	19.25
669.8	19.52
670.0	19.56
670.2	19.35
670.4	19.11
670.6	19.47
670.8	19.84
671.0	20.10
671.2	19.83
671.4	18.89
671.6	18.50
671.8	18.20
672.0	18.30
672.2	18.48
672.4	18.56
672.6	17.97
672.8	17.74
673.0	17.36
673.2	17.22
673.4	17.59
673.6	17.62
673.8	17.27
674.0	17.04
674.2	17.15
674.4	17.18
674.6	17.33
674.8	17.05
675.0	17.03
675.2	16.85
675.4	16.71
675.6	16.59
675.8	16.41
676.0	16.09
676.2	16.34
676.4	16.46
676.6	16.14
676.8	15.86
677.0	15.67
677.2	15.58
677.4	15.54
677.6	15.71
677.8	15.47
678.0	15.16
678.2	15.11
678.4	14.99
678.6	14.73
678.8	15.07
679.0	15.21
679.2	15.24
679.4	15.39
679.6	15.22
679.8	14.84
680.0	15.07
680.2	15.45
680.4	15.43
680.6	14.98
680.8	14.49
681.0	14.04
681.2	13.75
681.4	13.88
681.6	14.04
681.8	13.97
682.0	13.95
682.2	14.18
682.4	14.10
682.6	13.96
682.8	13.90
683.0	13.87
683.2	13.62
683.4	13.59
683.6	13.73
683.8	13.82
684.0	13.90
684.2	13.55
684.4	13.52
684.6	13.25
684.8	13.48
685.0	13.75
685.2	13.78
685.4	13.35
685.6	13.26
685.8	12.98
686.0	13.01
686.2	13.02
686.4	13.24
686.6	13.41
686.8	13.29
687.0	13.04
687.2	12.45
687.4	12.40
687.6	12.51
687.8	12.69
688.0	12.75
688.2	12.55
688.4	11.98
688.6	11.75
688.8	11.82
689.0	11.76
689.2	11.83
689.4	11.91
689.6	12.22
689.8	12.48
690.0	12.88
690.2	12.49
690.4	12.25
690.6	12.12
690.8	12.20
691.0	12.35
691.2	12.13
691.4	11.76
691.6	11.80
691.8	12.03
692.0	11.94
692.2	11.93
692.4	11.70
692.6	11.41
692.8	11.45
693.0	11.40
693.2	11.14
693.4	11.27
693.6	11.49
693.8	11.40
694.0	11.52
694.2	11.40
694.4	11.26
694.6	11.27
694.8	11.00
695.0	10.87
695.2	10.85
695.4	10.82
695.6	10.82
695.8	10.53
696.0	10.24
696.2	10.28
696.4	10.46
696.6	10.49
696.8	10.58
697.0	10.22
697.2	10.08
697.4	9.984
697.6	10.07
697.8	10.13
698.0	10.16
698.2	10.31
698.4	10.04
698.6	9.730
698.8	9.822
699.0	9.749
699.2	9.946
699.4	10.27
699.6	10.07
699.8	9.771
700.0	9.577
700.2	9.216
700.4	9.129
700.6	9.257
700.8	9.438
701.0	9.757
701.2	9.627
701.4	9.509
701.6	9.193
701.8	8.879
702.0	8.718
702.2	8.865
702.4	8.752
702.6	8.951
702.8	9.178
703.0	9.002
703.2	9.198
703.4	9.121
703.6	9.071
703.8	9.097
704.0	9.148
704.2	9.032
704.4	9.036
704.6	9.047
704.8	9.144
705.0	9.112
705.2	8.863
705.4	8.621
705.6	8.605
705.8	8.807
706.0	8.829
706.2	8.833
706.4	8.598
706.6	8.608
706.8	8.535
707.0	8.425
707.2	8.323
707.4	8.333
707.6	8.371
707.8	8.772
708.0	8.791
708.2	8.873
708.4	8.910
708.6	8.888
708.8	8.930
709.0	8.840
709.2	8.681
709.4	8.488
709.6	8.350
709.8	8.470
710.0	8.513
710.2	8.220
710.4	7.961
710.6	7.774
710.8	7.664
711.0	7.972
711.2	8.261
711.4	8.379
711.6	8.187
711.8	8.199
712.0	7.838
712.2	7.784
712.4	7.900
712.6	8.111
712.8	7.954
713.0	7.900
713.2	7.652
713.4	7.411
713.6	7.584
713.8	7.775
714.0	8.069
714.2	8.071
714.4	7.971
714.6	7.695
714.8	7.717
715.0	7.534
715.2	7.771
715.4	7.741
715.6	7.686
715.8	7.669
716.0	7.631
716.2	7.355
716.4	7.274
716.6	7.124
716.8	7.269
717.0	7.433
717.2	7.261
717.4	6.956
717.6	6.991
717.8	6.962
718.0	7.174
718.2	7.090
718.4	6.800
718.6	6.495
718.8	6.484
719.0	6.660
719.2	6.887
719.4	6.844
719.6	6.730
719.8	6.497
720.0	6.370
720.2	6.411
720.4	6.571
720.6	6.455
720.8	6.274
721.0	6.328
721.2	6.285
721.4	6.206
721.6	6.186
721.8	6.139
722.0	6.157
722.2	6.161
722.4	5.986
722.6	5.939
722.8	6.039
723.0	6.129
723.2	6.282
723.4	6.221
723.6	5.968
723.8	5.787
724.0	5.803
724.2	5.654
724.4	5.880
724.6	5.951
724.8	5.899
725.0	5.776
725.2	5.838
725.4	5.689
725.6	5.724
725.8	5.651
726.0	5.590
726.2	5.593
726.4	5.787
726.6	5.622
726.8	5.496
727.0	5.638
727.2	5.556
727.4	5.467
727.6	5.421
727.8	5.203
728.0	5.236
728.2	5.415
728.4	5.557
728.6	5.507
728.8	5.581
729.0	5.641
729.2	5.727
729.4	5.468
729.6	5.296
729.8	5.088
730.0	5.108
730.2	5.236
730.4	5.389
730.6	5.514
730.8	5.548
731.0	5.286
731.2	5.155
731.4	4.930
731.6	4.732
731.8	5.089
732.0	5.346
732.2	5.369
732.4	5.537
732.6	5.455
732.8	5.349
733.0	5.382
733.2	5.202
733.4	4.951
733.6	4.749
733.8	4.731
734.0	5.034
734.2	5.060
734.4	5.121
734.6	4.946
734.8	4.940
735.0	4.828
735.2	4.919
735.4	4.627
735.6	4.609
735.8	4.587
736.0	4.839
736.2	4.940
736.4	5.180
736.6	5.173
736.8	5.071
737.0	4.640
737.2	4.494
737.4	4.531
737.6	4.651
737.8	4.784
738.0	4.712
738.2	4.435
738.4	4.429
738.6	4.524
738.8	4.639
739.0	4.541
739.2	4.424
739.4	4.322
739.6	4.331
739.8	4.371
740.0	4.380
740.2	4.187
740.4	4.170
740.6	4.205
740.8	4.308
741.0	4.297
741.2	4.329
741.4	4.355
741.6	4.543
741.8	4.676
742.0	4.622
742.2	4.486
742.4	4.600
742.6	4.527
742.8	4.533
743.0	4.362
743.2	4.206
743.4	4.114
743.6	4.215
743.8	4.190
744.0	4.192
744.2	4.123
744.4	4.063
744.6	4.181
744.8	4.087
745.0	3.983
745.2	3.738
745.4	3.622
745.6	3.624
745.8	3.811
746.0	3.849
746.2	3.753
746.4	3.596
746.6	3.623
746.8	3.759
747.0	3.751
747.2	3.823
747.4	3.558
747.6	3.512
747.8	3.513
748.0	3.655
748.2	3.575
748.4	3.659
748.6	3.590
748.8	3.697
749.0	3.600
749.2	3.596
749.4	3.404
749.6	3.346
749.8	3.423
750.0	3.585
750.2	3.545
750.4	3.565
750.6	3.572
750.8	3.399
751.0	3.491
751.2	3.434
751.4	3.386
751.6	3.295
751.8	3.263
752.0	3.134
752.2	3.281
752.4	3.279
752.6	3.410
752.8	3.486
753.0	3.493
753.2	3.542
753.4	3.583
753.6	3.451
753.8	3.385
754.0	3.372
754.2	3.408
754.4	3.465
754.6	3.575
754.8	3.484
755.0	3.301
755.2	3.348
755.4	3.433
755.6	3.218
755.8	3.161
756.0	3.120
756.2	3.084
756.4	3.321
756.6	3.460
756.8	3.316
757.0	3.336
757.2	3.415
757.4	3.318
757.6	3.398
757.8	3.470
758.0	3.327
758.2	3.291
758.4	3.284
758.6	3.240
758.8	3.332
759.0	3.531
759.2	3.496
759.4	3.578
759.6	3.550
759.8	3.526
760.0	3.455
760.2	3.367
760.4	3.327
760.6	3.360
760.8	3.276
761.0	3.250
761.2	3.380
761.4	3.326
761.6	3.283
761.8	3.219
762.0	3.214
762.2	3.227
762.4	3.291
762.6	3.269
762.8	3.227
763.0	3.361
763.2	3.583
763.4	3.637
763.6	3.482
763.8	3.420
764.0	3.225
764.2	3.251
764.4	3.370
764.6	3.418
764.8	3.420
765.0	3.508
765.2	3.432
765.4	3.427
765.6	3.364
765.8	3.180
766.0	3.152
766.2	3.139
766.4	3.282
766.6	3.257
766.8	3.338
767.0	3.279
767.2	3.351
767.4	3.447
767.6	3.352
767.8	3.217
768.0	3.239
768.2	2.976
768.4	2.812
768.6	2.813
768.8	2.701
769.0	2.740
769.2	2.799
769.4	2.864
769.6	2.947
769.8	2.974
770.0	2.885
770.2	2.752
770.4	2.594
770.6	2.639
770.8	2.605
771.0	2.668
771.2	2.562
771.4	2.657
771.6	2.694
771.8	2.696
772.0	2.670
772.2	2.738
772.4	2.651
772.6	2.627
772.8	2.508
773.0	2.368
773.2	2.434
773.4	2.608
773.6	2.811
773.8	2.753
774.0	2.530
774.2	2.300
774.4	2.180
774.6	2.213
774.8	2.286
775.0	2.182
775.2	2.265
775.4	2.407
775.6	2.420
775.8	2.354
776.0	2.285
776.2	2.134
776.4	2.046
776.6	2.178
776.8	2.247
777.0	2.167
777.2	2.275
777.4	2.266
777.6	2.137
777.8	2.207
778.0	2.244
778.2	2.247
778.4	2.340
778.6	2.274
778.8	2.255
779.0	2.175
779.2	2.250
779.4	2.293
779.6	2.404
779.8	2.419
780.0	2.464
780.2	2.439
780.4	2.396
780.6	2.136
780.8	1.995
781.0	1.879
781.2	2.067
781.4	2.265
781.6	2.331
781.8	2.304
782.0	2.207
782.2	2.113
782.4	2.212
782.6	2.161
782.8	2.211
783.0	2.228
783.2	2.158
783.4	2.041
783.6	1.999
783.8	1.908
784.0	1.986
784.2	2.055
784.4	2.141
784.6	2.119
784.8	2.172
785.0	2.146
785.2	2.004
785.4	1.932
785.6	2.076
785.8	2.103
786.0	2.155
786.2	2.231
786.4	2.095
786.6	2.084
786.8	2.148
787.0	2.270
787.2	2.310
787.4	2.381
787.6	2.350
787.8	2.269
788.0	2.178
788.2	2.163
788.4	2.226
788.6	2.391
788.8	2.484
789.0	2.350
789.2	2.291
789.4	2.145
789.6	2.082
789.8	2.251
790.0	2.319
790.2	2.317
790.4	2.288
790.6	2.252
790.8	2.102
791.0	2.073
791.2	2.039
791.4	2.057
791.6	2.045
791.8	2.075
792.0	2.082
792.2	2.048
792.4	2.083
792.6	2.041
792.8	2.035
793.0	2.149
793.2	2.409
793.4	2.396
793.6	2.348
793.8	2.225
794.0	2.163
794.2	2.223
794.4	2.338
794.6	2.273
794.8	2.295
795.0	2.290
795.2	2.249
795.4	2.156
795.6	2.057
795.8	2.108
796.0	2.271
796.2	2.361
796.4	2.335
796.6	2.353
796.8	2.366
797.0	2.387
797.2	2.484
797.4	2.472
797.6	2.337
797.8	2.234
798.0	2.143
798.2	2.042
798.4	2.235
798.6	2.284
798.8	2.318
799.0	2.204
799.2	2.113
799.4	2.015
799.6	2.080
799.8	2.072
800.0	1.872

