Sample:	'20211010A(EM)
File name:	g-cds-cho 1;5 465v.FDS
Run date:	'09:22:56, 03/22/2023
Operator:	Administrator
Comment:	'

Instrument
Model:	F-4700 FL Spectrophotometer
Serial number:	2019-001
ROM Version:	5J24010 00

Instrument parameters
Measurement type:	Wavelength scan
Scan mode:	Emission
Data mode:	Fluorescence
EX WL:	400.0 nm
EM  Start WL:	420.0 nm
EM  End WL:	850.0 nm
Scan speed:	1200 nm/min
Delay:	0.0 s
EX Slit:	10.0 nm
EM Slit:	10.0 nm
PMT Voltage:	465 V
Response:	0.002 s
Corrected spectra:	Off
Shutter control:	On

Processing performed
Savitsky-Golay smoothed
Smoothing order:	3
Number of points:	7
Number of times:	1

Peak integration
Integration method:	Rectangular
Sensitivity:	1
Threshold:	1.000

Peaks
No.	Start(nm)	Apex(nm)	End(nm)	Height(Data)	Valley(nm)	Valley(Data)
1	420.0	539.6	850.0	2956	850.0	1.314

Data points
nm	Data
420.0	2.456
420.2	2.393
420.4	2.327
420.6	2.269
420.8	2.271
421.0	2.205
421.2	2.131
421.4	2.072
421.6	2.056
421.8	2.020
422.0	2.126
422.2	2.191
422.4	2.216
422.6	2.187
422.8	2.192
423.0	2.203
423.2	2.238
423.4	2.347
423.6	2.297
423.8	2.203
424.0	2.152
424.2	2.200
424.4	2.222
424.6	2.326
424.8	2.369
425.0	2.349
425.2	2.266
425.4	2.222
425.6	2.274
425.8	2.336
426.0	2.460
426.2	2.471
426.4	2.370
426.6	2.351
426.8	2.409
427.0	2.411
427.2	2.409
427.4	2.387
427.6	2.319
427.8	2.407
428.0	2.458
428.2	2.440
428.4	2.369
428.6	2.305
428.8	2.228
429.0	2.275
429.2	2.270
429.4	2.326
429.6	2.344
429.8	2.381
430.0	2.385
430.2	2.449
430.4	2.421
430.6	2.433
430.8	2.354
431.0	2.310
431.2	2.307
431.4	2.398
431.6	2.426
431.8	2.352
432.0	2.337
432.2	2.364
432.4	2.428
432.6	2.547
432.8	2.599
433.0	2.561
433.2	2.586
433.4	2.632
433.6	2.485
433.8	2.444
434.0	2.500
434.2	2.550
434.4	2.640
434.6	2.745
434.8	2.605
435.0	2.637
435.2	2.627
435.4	2.557
435.6	2.560
435.8	2.582
436.0	2.578
436.2	2.697
436.4	2.705
436.6	2.719
436.8	2.614
437.0	2.599
437.2	2.581
437.4	2.612
437.6	2.714
437.8	2.905
438.0	2.961
438.2	3.058
438.4	3.017
438.6	2.893
438.8	2.717
439.0	2.690
439.2	2.804
439.4	2.873
439.6	3.039
439.8	3.127
440.0	3.011
440.2	3.011
440.4	3.118
440.6	3.071
440.8	3.197
441.0	3.183
441.2	3.091
441.4	3.120
441.6	3.124
441.8	3.130
442.0	3.262
442.2	3.243
442.4	3.274
442.6	3.343
442.8	3.301
443.0	3.305
443.2	3.278
443.4	3.272
443.6	3.324
443.8	3.413
444.0	3.411
444.2	3.554
444.4	3.563
444.6	3.567
444.8	3.494
445.0	3.450
445.2	3.366
445.4	3.472
445.6	3.595
445.8	3.645
446.0	3.575
446.2	3.675
446.4	3.738
446.6	3.793
446.8	3.989
447.0	4.033
447.2	3.987
447.4	4.132
447.6	4.134
447.8	4.210
448.0	4.326
448.2	4.360
448.4	4.349
448.6	4.487
448.8	4.373
449.0	4.438
449.2	4.494
449.4	4.572
449.6	4.625
449.8	4.699
450.0	4.551
450.2	4.622
450.4	4.853
450.6	4.954
450.8	5.115
451.0	5.128
451.2	5.126
451.4	5.198
451.6	5.331
451.8	5.359
452.0	5.411
452.2	5.459
452.4	5.550
452.6	5.570
452.8	5.577
453.0	5.655
453.2	5.659
453.4	5.924
453.6	6.072
453.8	6.260
454.0	6.348
454.2	6.397
454.4	6.622
454.6	6.848
454.8	6.884
455.0	6.983
455.2	6.896
455.4	6.800
455.6	7.141
455.8	7.351
456.0	7.577
456.2	7.733
456.4	7.796
456.6	7.919
456.8	8.194
457.0	8.515
457.2	8.662
457.4	8.639
457.6	8.806
457.8	9.050
458.0	9.310
458.2	9.622
458.4	9.860
458.6	10.20
458.8	10.35
459.0	10.56
459.2	10.74
459.4	10.94
459.6	11.30
459.8	11.83
460.0	11.93
460.2	12.44
460.4	12.86
460.6	13.23
460.8	13.76
461.0	14.19
461.2	14.55
461.4	14.94
461.6	15.19
461.8	15.32
462.0	15.74
462.2	16.26
462.4	16.84
462.6	17.10
462.8	17.52
463.0	17.98
463.2	18.61
463.4	19.39
463.6	19.99
463.8	20.57
464.0	21.30
464.2	22.22
464.4	23.03
464.6	23.67
464.8	24.02
465.0	24.47
465.2	25.09
465.4	25.85
465.6	26.63
465.8	27.34
466.0	27.91
466.2	28.63
466.4	29.76
466.6	30.69
466.8	31.84
467.0	32.92
467.2	34.12
467.4	35.37
467.6	36.49
467.8	37.33
468.0	37.92
468.2	38.75
468.4	39.58
468.6	41.01
468.8	42.29
469.0	43.95
469.2	45.52
469.4	46.99
469.6	48.40
469.8	50.18
470.0	51.09
470.2	52.90
470.4	54.34
470.6	55.87
470.8	57.43
471.0	59.02
471.2	60.20
471.4	62.20
471.6	63.62
471.8	65.46
472.0	67.28
472.2	69.23
472.4	70.70
472.6	72.65
472.8	74.49
473.0	76.35
473.2	78.25
473.4	80.36
473.6	82.38
473.8	84.87
474.0	87.40
474.2	89.75
474.4	92.05
474.6	94.42
474.8	96.71
475.0	98.76
475.2	101.0
475.4	103.4
475.6	106.2
475.8	108.7
476.0	111.4
476.2	113.8
476.4	116.3
476.6	119.4
476.8	122.6
477.0	125.6
477.2	128.7
477.4	131.2
477.6	133.8
477.8	136.6
478.0	139.5
478.2	142.7
478.4	145.5
478.6	148.2
478.8	151.3
479.0	154.8
479.2	158.0
479.4	162.1
479.6	165.4
479.8	169.0
480.0	172.0
480.2	176.2
480.4	179.6
480.6	183.6
480.8	187.0
481.0	190.6
481.2	194.1
481.4	198.2
481.6	202.1
481.8	206.3
482.0	211.2
482.2	215.4
482.4	220.2
482.6	223.8
482.8	227.3
483.0	230.9
483.2	235.4
483.4	240.1
483.6	246.1
483.8	251.7
484.0	256.8
484.2	261.7
484.4	266.6
484.6	270.5
484.8	275.5
485.0	280.4
485.2	285.1
485.4	290.8
485.6	296.9
485.8	302.4
486.0	308.2
486.2	313.5
486.4	317.9
486.6	322.1
486.8	326.7
487.0	332.6
487.2	339.6
487.4	347.8
487.6	354.6
487.8	360.8
488.0	365.6
488.2	371.1
488.4	376.6
488.6	382.2
488.8	389.7
489.0	398.0
489.2	406.5
489.4	415.6
489.6	423.1
489.8	428.8
490.0	437.1
490.2	444.4
490.4	451.7
490.6	458.8
490.8	466.0
491.0	473.3
491.2	481.7
491.4	488.7
491.6	495.7
491.8	502.9
492.0	510.6
492.2	518.7
492.4	527.8
492.6	538.1
492.8	549.1
493.0	558.3
493.2	566.7
493.4	575.2
493.6	583.8
493.8	593.4
494.0	603.4
494.2	612.3
494.4	622.8
494.6	632.7
494.8	642.3
495.0	651.8
495.2	661.9
495.4	672.5
495.6	683.4
495.8	692.4
496.0	702.2
496.2	714.3
496.4	726.7
496.6	738.2
496.8	748.4
497.0	758.9
497.2	768.1
497.4	780.8
497.6	793.3
497.8	804.0
498.0	814.2
498.2	827.8
498.4	839.3
498.6	852.3
498.8	863.2
499.0	873.5
499.2	884.0
499.4	897.5
499.6	911.8
499.8	926.0
500.0	936.8
500.2	949.2
500.4	963.7
500.6	979.0
500.8	994.2
501.0	1007
501.2	1020
501.4	1032
501.6	1046
501.8	1059
502.0	1071
502.2	1085
502.4	1097
502.6	1113
502.8	1129
503.0	1142
503.2	1156
503.4	1169
503.6	1181
503.8	1198
504.0	1216
504.2	1231
504.4	1245
504.6	1257
504.8	1270
505.0	1284
505.2	1298
505.4	1311
505.6	1324
505.8	1343
506.0	1363
506.2	1381
506.4	1395
506.6	1406
506.8	1417
507.0	1433
507.2	1449
507.4	1468
507.6	1485
507.8	1501
508.0	1518
508.2	1530
508.4	1542
508.6	1554
508.8	1566
509.0	1579
509.2	1596
509.4	1612
509.6	1628
509.8	1643
510.0	1660
510.2	1677
510.4	1692
510.6	1708
510.8	1722
511.0	1736
511.2	1751
511.4	1767
511.6	1781
511.8	1797
512.0	1812
512.2	1826
512.4	1844
512.6	1861
512.8	1878
513.0	1892
513.2	1905
513.4	1916
513.6	1931
513.8	1946
514.0	1961
514.2	1973
514.4	1987
514.6	1998
514.8	2012
515.0	2026
515.2	2044
515.4	2060
515.6	2077
515.8	2092
516.0	2105
516.2	2116
516.4	2127
516.6	2140
516.8	2154
517.0	2171
517.2	2187
517.4	2199
517.6	2209
517.8	2223
518.0	2234
518.2	2246
518.4	2258
518.6	2271
518.8	2282
519.0	2294
519.2	2305
519.4	2318
519.6	2336
519.8	2349
520.0	2361
520.2	2372
520.4	2384
520.6	2397
520.8	2409
521.0	2421
521.2	2435
521.4	2446
521.6	2456
521.8	2462
522.0	2467
522.2	2479
522.4	2491
522.6	2502
522.8	2512
523.0	2523
523.2	2533
523.4	2545
523.6	2554
523.8	2564
524.0	2574
524.2	2586
524.4	2596
524.6	2606
524.8	2613
525.0	2627
525.2	2634
525.4	2638
525.6	2648
525.8	2657
526.0	2667
526.2	2682
526.4	2686
526.6	2692
526.8	2697
527.0	2702
527.2	2712
527.4	2720
527.6	2726
527.8	2734
528.0	2738
528.2	2743
528.4	2749
528.6	2755
528.8	2761
529.0	2770
529.2	2776
529.4	2787
529.6	2797
529.8	2807
530.0	2813
530.2	2819
530.4	2820
530.6	2828
530.8	2834
531.0	2844
531.2	2847
531.4	2849
531.6	2850
531.8	2853
532.0	2856
532.2	2865
532.4	2871
532.6	2872
532.8	2874
533.0	2874
533.2	2877
533.4	2883
533.6	2888
533.8	2891
534.0	2895
534.2	2898
534.4	2902
534.6	2907
534.8	2908
535.0	2912
535.2	2916
535.4	2920
535.6	2924
535.8	2928
536.0	2928
536.2	2930
536.4	2931
536.6	2933
536.8	2937
537.0	2937
537.2	2935
537.4	2935
537.6	2935
537.8	2937
538.0	2940
538.2	2941
538.4	2941
538.6	2941
538.8	2943
539.0	2946
539.2	2950
539.4	2955
539.6	2956
539.8	2954
540.0	2952
540.2	2951
540.4	2950
540.6	2952
540.8	2953
541.0	2953
541.2	2951
541.4	2949
541.6	2945
541.8	2946
542.0	2948
542.2	2947
542.4	2945
542.6	2944
542.8	2942
543.0	2941
543.2	2943
543.4	2940
543.6	2939
543.8	2937
544.0	2937
544.2	2937
544.4	2933
544.6	2931
544.8	2929
545.0	2925
545.2	2929
545.4	2931
545.6	2925
545.8	2924
546.0	2920
546.2	2916
546.4	2914
546.6	2915
546.8	2913
547.0	2912
547.2	2907
547.4	2899
547.6	2894
547.8	2893
548.0	2895
548.2	2895
548.4	2893
548.6	2887
548.8	2882
549.0	2878
549.2	2876
549.4	2873
549.6	2867
549.8	2862
550.0	2856
550.2	2855
550.4	2850
550.6	2849
550.8	2843
551.0	2843
551.2	2839
551.4	2838
551.6	2839
551.8	2839
552.0	2835
552.2	2830
552.4	2820
552.6	2810
552.8	2805
553.0	2801
553.2	2801
553.4	2801
553.6	2798
553.8	2797
554.0	2790
554.2	2780
554.4	2773
554.6	2769
554.8	2764
555.0	2763
555.2	2758
555.4	2748
555.6	2742
555.8	2738
556.0	2735
556.2	2732
556.4	2729
556.6	2720
556.8	2713
557.0	2711
557.2	2711
557.4	2705
557.6	2701
557.8	2695
558.0	2689
558.2	2686
558.4	2681
558.6	2672
558.8	2665
559.0	2660
559.2	2654
559.4	2650
559.6	2648
559.8	2644
560.0	2634
560.2	2625
560.4	2613
560.6	2606
560.8	2602
561.0	2602
561.2	2600
561.4	2597
561.6	2588
561.8	2582
562.0	2574
562.2	2568
562.4	2563
562.6	2560
562.8	2554
563.0	2549
563.2	2542
563.4	2535
563.6	2527
563.8	2522
564.0	2518
564.2	2510
564.4	2499
564.6	2493
564.8	2483
565.0	2475
565.2	2470
565.4	2462
565.6	2453
565.8	2451
566.0	2449
566.2	2446
566.4	2442
566.6	2437
566.8	2431
567.0	2424
567.2	2416
567.4	2407
567.6	2398
567.8	2392
568.0	2387
568.2	2379
568.4	2374
568.6	2368
568.8	2363
569.0	2355
569.2	2351
569.4	2340
569.6	2331
569.8	2324
570.0	2318
570.2	2316
570.4	2313
570.6	2306
570.8	2295
571.0	2288
571.2	2280
571.4	2273
571.6	2267
571.8	2259
572.0	2251
572.2	2245
572.4	2236
572.6	2229
572.8	2223
573.0	2218
573.2	2212
573.4	2207
573.6	2199
573.8	2192
574.0	2184
574.2	2179
574.4	2172
574.6	2164
574.8	2157
575.0	2150
575.2	2144
575.4	2140
575.6	2133
575.8	2124
576.0	2114
576.2	2107
576.4	2098
576.6	2091
576.8	2085
577.0	2081
577.2	2075
577.4	2070
577.6	2063
577.8	2054
578.0	2045
578.2	2037
578.4	2029
578.6	2022
578.8	2016
579.0	2008
579.2	2004
579.4	1999
579.6	1995
579.8	1989
580.0	1982
580.2	1974
580.4	1966
580.6	1960
580.8	1953
581.0	1945
581.2	1938
581.4	1932
581.6	1924
581.8	1918
582.0	1910
582.2	1903
582.4	1898
582.6	1892
582.8	1885
583.0	1874
583.2	1863
583.4	1855
583.6	1851
583.8	1850
584.0	1847
584.2	1840
584.4	1831
584.6	1820
584.8	1812
585.0	1807
585.2	1804
585.4	1798
585.6	1792
585.8	1784
586.0	1775
586.2	1766
586.4	1759
586.6	1751
586.8	1743
587.0	1737
587.2	1731
587.4	1724
587.6	1719
587.8	1713
588.0	1704
588.2	1697
588.4	1694
588.6	1690
588.8	1685
589.0	1681
589.2	1675
589.4	1670
589.6	1663
589.8	1655
590.0	1645
590.2	1638
590.4	1631
590.6	1622
590.8	1614
591.0	1609
591.2	1602
591.4	1594
591.6	1586
591.8	1579
592.0	1574
592.2	1570
592.4	1566
592.6	1560
592.8	1552
593.0	1546
593.2	1541
593.4	1535
593.6	1529
593.8	1521
594.0	1514
594.2	1504
594.4	1498
594.6	1493
594.8	1489
595.0	1483
595.2	1478
595.4	1471
595.6	1462
595.8	1454
596.0	1448
596.2	1442
596.4	1437
596.6	1434
596.8	1429
597.0	1424
597.2	1418
597.4	1411
597.6	1405
597.8	1400
598.0	1394
598.2	1389
598.4	1382
598.6	1375
598.8	1368
599.0	1362
599.2	1357
599.4	1350
599.6	1344
599.8	1338
600.0	1329
600.2	1324
600.4	1318
600.6	1313
600.8	1312
601.0	1308
601.2	1302
601.4	1298
601.6	1290
601.8	1282
602.0	1277
602.2	1272
602.4	1266
602.6	1259
602.8	1253
603.0	1248
603.2	1243
603.4	1238
603.6	1232
603.8	1224
604.0	1218
604.2	1215
604.4	1210
604.6	1204
604.8	1196
605.0	1189
605.2	1183
605.4	1180
605.6	1175
605.8	1171
606.0	1165
606.2	1160
606.4	1155
606.6	1149
606.8	1144
607.0	1138
607.2	1132
607.4	1124
607.6	1118
607.8	1112
608.0	1108
608.2	1101
608.4	1097
608.6	1092
608.8	1090
609.0	1083
609.2	1079
609.4	1072
609.6	1066
609.8	1061
610.0	1054
610.2	1049
610.4	1045
610.6	1042
610.8	1039
611.0	1036
611.2	1028
611.4	1025
611.6	1016
611.8	1009
612.0	1004
612.2	998.9
612.4	992.7
612.6	988.9
612.8	982.4
613.0	975.7
613.2	969.1
613.4	964.5
613.6	961.3
613.8	957.8
614.0	954.0
614.2	947.9
614.4	942.8
614.6	936.7
614.8	932.5
615.0	927.6
615.2	923.4
615.4	918.8
615.6	916.7
615.8	911.5
616.0	907.8
616.2	903.6
616.4	897.2
616.6	890.5
616.8	886.7
617.0	881.3
617.2	876.0
617.4	872.8
617.6	867.4
617.8	861.9
618.0	858.5
618.2	855.0
618.4	849.5
618.6	846.1
618.8	841.6
619.0	836.3
619.2	831.2
619.4	827.4
619.6	822.4
619.8	818.7
620.0	814.1
620.2	808.9
620.4	804.2
620.6	799.9
620.8	796.1
621.0	792.2
621.2	786.9
621.4	781.5
621.6	777.4
621.8	773.3
622.0	769.0
622.2	764.9
622.4	759.9
622.6	756.8
622.8	752.9
623.0	748.2
623.2	743.2
623.4	738.9
623.6	735.3
623.8	734.4
624.0	732.1
624.2	726.4
624.4	721.3
624.6	713.6
624.8	707.4
625.0	703.8
625.2	701.6
625.4	698.5
625.6	696.6
625.8	691.4
626.0	687.4
626.2	683.3
626.4	679.4
626.6	676.1
626.8	671.1
627.0	665.5
627.2	661.1
627.4	657.6
627.6	653.7
627.8	649.4
628.0	644.6
628.2	640.6
628.4	637.0
628.6	635.4
628.8	632.8
629.0	628.8
629.2	625.5
629.4	623.7
629.6	618.5
629.8	614.5
630.0	611.2
630.2	607.7
630.4	603.9
630.6	598.9
630.8	593.0
631.0	588.4
631.2	585.5
631.4	583.8
631.6	580.2
631.8	575.5
632.0	571.5
632.2	569.3
632.4	567.2
632.6	565.8
632.8	563.2
633.0	560.1
633.2	555.8
633.4	552.8
633.6	549.0
633.8	545.4
634.0	541.7
634.2	538.3
634.4	535.3
634.6	532.0
634.8	529.0
635.0	526.3
635.2	523.0
635.4	519.6
635.6	516.1
635.8	512.6
636.0	509.4
636.2	506.2
636.4	501.8
636.6	497.9
636.8	495.5
637.0	493.3
637.2	490.3
637.4	487.6
637.6	484.1
637.8	480.7
638.0	479.0
638.2	476.8
638.4	473.7
638.6	471.7
638.8	469.5
639.0	465.8
639.2	462.5
639.4	458.7
639.6	455.5
639.8	453.2
640.0	451.6
640.2	449.8
640.4	447.0
640.6	442.7
640.8	439.7
641.0	436.7
641.2	434.9
641.4	432.2
641.6	429.7
641.8	425.7
642.0	422.6
642.2	419.6
642.4	418.4
642.6	415.2
642.8	413.3
643.0	409.7
643.2	407.4
643.4	404.3
643.6	402.4
643.8	399.7
644.0	397.3
644.2	394.5
644.4	392.5
644.6	389.6
644.8	386.4
645.0	384.2
645.2	382.4
645.4	380.8
645.6	378.8
645.8	376.7
646.0	373.6
646.2	371.8
646.4	370.1
646.6	367.7
646.8	365.4
647.0	363.2
647.2	360.2
647.4	357.7
647.6	355.8
647.8	353.4
648.0	352.0
648.2	349.4
648.4	345.8
648.6	343.2
648.8	340.6
649.0	337.7
649.2	335.5
649.4	333.8
649.6	332.6
649.8	331.7
650.0	329.7
650.2	327.3
650.4	325.0
650.6	323.1
650.8	320.4
651.0	316.9
651.2	314.3
651.4	313.0
651.6	312.4
651.8	310.9
652.0	308.6
652.2	306.0
652.4	303.8
652.6	302.6
652.8	300.6
653.0	298.1
653.2	296.6
653.4	295.3
653.6	293.9
653.8	292.4
654.0	288.6
654.2	285.5
654.4	284.1
654.6	282.7
654.8	281.6
655.0	279.6
655.2	276.2
655.4	274.8
655.6	273.7
655.8	272.2
656.0	272.0
656.2	269.9
656.4	268.1
656.6	267.0
656.8	264.3
657.0	262.0
657.2	260.3
657.4	258.3
657.6	257.1
657.8	256.1
658.0	253.9
658.2	251.9
658.4	250.0
658.6	248.3
658.8	247.4
659.0	246.0
659.2	243.6
659.4	241.8
659.6	240.1
659.8	238.6
660.0	237.9
660.2	236.8
660.4	235.1
660.6	233.2
660.8	231.2
661.0	229.0
661.2	226.3
661.4	225.7
661.6	224.4
661.8	223.4
662.0	222.5
662.2	220.3
662.4	218.4
662.6	217.3
662.8	214.9
663.0	213.3
663.2	212.1
663.4	211.0
663.6	210.2
663.8	209.5
664.0	208.2
664.2	206.6
664.4	204.8
664.6	202.9
664.8	200.5
665.0	198.9
665.2	197.6
665.4	196.5
665.6	195.4
665.8	193.7
666.0	193.5
666.2	192.0
666.4	191.6
666.6	190.4
666.8	189.0
667.0	187.1
667.2	186.2
667.4	184.3
667.6	182.9
667.8	181.3
668.0	180.3
668.2	179.1
668.4	177.4
668.6	176.3
668.8	175.3
669.0	175.2
669.2	175.3
669.4	173.6
669.6	171.5
669.8	169.7
670.0	168.1
670.2	167.7
670.4	166.5
670.6	165.0
670.8	164.5
671.0	163.4
671.2	162.1
671.4	161.1
671.6	159.2
671.8	158.2
672.0	157.7
672.2	156.9
672.4	155.9
672.6	154.6
672.8	153.5
673.0	152.7
673.2	151.3
673.4	150.1
673.6	148.6
673.8	147.1
674.0	146.3
674.2	145.3
674.4	144.0
674.6	143.1
674.8	142.2
675.0	141.6
675.2	141.2
675.4	140.4
675.6	139.7
675.8	138.8
676.0	137.6
676.2	137.0
676.4	135.3
676.6	134.6
676.8	133.4
677.0	132.5
677.2	131.7
677.4	131.0
677.6	129.8
677.8	128.9
678.0	127.0
678.2	125.8
678.4	125.1
678.6	124.2
678.8	124.1
679.0	123.7
679.2	122.5
679.4	121.7
679.6	120.7
679.8	119.7
680.0	119.0
680.2	118.4
680.4	117.7
680.6	117.4
680.8	116.4
681.0	115.2
681.2	113.5
681.4	112.8
681.6	112.3
681.8	111.9
682.0	111.3
682.2	110.8
682.4	108.6
682.6	107.4
682.8	106.4
683.0	106.4
683.2	106.5
683.4	106.3
683.6	104.8
683.8	103.7
684.0	102.3
684.2	102.0
684.4	101.1
684.6	100.7
684.8	99.69
685.0	98.89
685.2	97.91
685.4	97.33
685.6	96.68
685.8	96.64
686.0	95.74
686.2	94.58
686.4	93.98
686.6	93.08
686.8	92.28
687.0	92.08
687.2	92.38
687.4	91.42
687.6	90.72
687.8	89.67
688.0	88.38
688.2	87.77
688.4	87.90
688.6	87.08
688.8	87.02
689.0	86.39
689.2	85.53
689.4	84.38
689.6	83.41
689.8	82.50
690.0	82.67
690.2	82.32
690.4	81.74
690.6	81.22
690.8	80.89
691.0	80.42
691.2	79.82
691.4	79.13
691.6	78.27
691.8	78.17
692.0	77.85
692.2	77.78
692.4	77.09
692.6	76.49
692.8	75.48
693.0	74.92
693.2	74.04
693.4	74.05
693.6	73.39
693.8	73.07
694.0	72.61
694.2	72.12
694.4	71.68
694.6	71.74
694.8	71.18
695.0	70.64
695.2	70.03
695.4	69.34
695.6	68.79
695.8	68.78
696.0	68.12
696.2	67.77
696.4	67.17
696.6	66.45
696.8	66.09
697.0	66.03
697.2	65.34
697.4	65.03
697.6	64.50
697.8	64.04
698.0	63.62
698.2	62.96
698.4	62.33
698.6	61.63
698.8	61.28
699.0	61.51
699.2	61.06
699.4	60.67
699.6	60.32
699.8	60.19
700.0	60.06
700.2	59.77
700.4	58.71
700.6	58.46
700.8	58.23
701.0	58.28
701.2	57.62
701.4	56.65
701.6	56.08
701.8	55.87
702.0	56.19
702.2	56.38
702.4	55.50
702.6	54.87
702.8	54.66
703.0	54.23
703.2	54.33
703.4	54.58
703.6	54.15
703.8	53.90
704.0	53.10
704.2	52.63
704.4	52.49
704.6	52.27
704.8	51.82
705.0	51.52
705.2	51.01
705.4	50.81
705.6	50.64
705.8	49.91
706.0	49.32
706.2	49.03
706.4	49.09
706.6	48.97
706.8	48.72
707.0	48.06
707.2	47.28
707.4	46.98
707.6	46.87
707.8	47.19
708.0	47.52
708.2	47.07
708.4	46.49
708.6	46.08
708.8	45.74
709.0	45.65
709.2	45.17
709.4	44.64
709.6	44.53
709.8	44.31
710.0	44.30
710.2	44.04
710.4	43.65
710.6	43.39
710.8	42.80
711.0	42.31
711.2	42.19
711.4	41.76
711.6	41.58
711.8	41.27
712.0	40.30
712.2	39.81
712.4	40.34
712.6	40.50
712.8	40.41
713.0	40.01
713.2	39.25
713.4	38.74
713.6	38.98
713.8	39.14
714.0	38.91
714.2	38.70
714.4	38.52
714.6	38.20
714.8	38.05
715.0	37.75
715.2	37.20
715.4	36.76
715.6	36.25
715.8	35.77
716.0	35.88
716.2	35.80
716.4	35.80
716.6	35.45
716.8	35.03
717.0	34.64
717.2	34.40
717.4	34.13
717.6	34.19
717.8	33.82
718.0	33.30
718.2	32.85
718.4	32.37
718.6	32.20
718.8	32.42
719.0	32.37
719.2	32.01
719.4	31.44
719.6	31.14
719.8	30.93
720.0	30.91
720.2	31.01
720.4	30.72
720.6	30.20
720.8	30.04
721.0	29.96
721.2	29.93
721.4	30.01
721.6	29.70
721.8	29.46
722.0	29.02
722.2	28.69
722.4	28.60
722.6	28.53
722.8	28.40
723.0	28.30
723.2	27.87
723.4	27.71
723.6	27.59
723.8	27.43
724.0	27.26
724.2	26.90
724.4	26.49
724.6	26.37
724.8	26.31
725.0	26.22
725.2	26.08
725.4	25.89
725.6	25.51
725.8	25.29
726.0	25.14
726.2	24.75
726.4	24.31
726.6	24.18
726.8	23.89
727.0	23.74
727.2	23.87
727.4	23.79
727.6	23.47
727.8	23.46
728.0	23.19
728.2	23.12
728.4	23.22
728.6	23.10
728.8	22.67
729.0	22.56
729.2	22.11
729.4	21.96
729.6	21.87
729.8	21.69
730.0	21.32
730.2	21.08
730.4	20.83
730.6	20.77
730.8	20.81
731.0	20.65
731.2	20.28
731.4	20.02
731.6	20.13
731.8	20.30
732.0	20.22
732.2	19.91
732.4	19.70
732.6	19.26
732.8	19.13
733.0	19.23
733.2	19.14
733.4	19.09
733.6	19.07
733.8	18.79
734.0	18.79
734.2	18.62
734.4	18.38
734.6	18.14
734.8	17.91
735.0	17.81
735.2	18.09
735.4	17.88
735.6	17.68
735.8	17.37
736.0	17.26
736.2	17.32
736.4	17.65
736.6	17.51
736.8	17.37
737.0	17.08
737.2	16.85
737.4	16.62
737.6	16.47
737.8	16.20
738.0	15.99
738.2	15.97
738.4	15.93
738.6	15.86
738.8	15.86
739.0	15.81
739.2	15.69
739.4	15.40
739.6	15.01
739.8	14.81
740.0	14.88
740.2	14.98
740.4	15.09
740.6	14.92
740.8	14.77
741.0	14.69
741.2	14.67
741.4	14.41
741.6	14.17
741.8	14.02
742.0	14.01
742.2	13.90
742.4	13.94
742.6	13.77
742.8	13.63
743.0	13.47
743.2	13.44
743.4	13.20
743.6	13.16
743.8	13.00
744.0	12.96
744.2	12.88
744.4	12.89
744.6	12.61
744.8	12.48
745.0	12.40
745.2	12.44
745.4	12.33
745.6	12.19
745.8	12.01
746.0	12.11
746.2	12.03
746.4	12.03
746.6	12.02
746.8	11.90
747.0	11.88
747.2	11.89
747.4	11.73
747.6	11.64
747.8	11.43
748.0	11.22
748.2	11.14
748.4	11.22
748.6	11.45
748.8	11.20
749.0	10.93
749.2	10.70
749.4	10.60
749.6	10.80
749.8	11.07
750.0	10.80
750.2	10.62
750.4	10.43
750.6	10.14
750.8	10.12
751.0	10.07
751.2	10.11
751.4	10.10
751.6	10.08
751.8	9.956
752.0	9.840
752.2	9.770
752.4	9.781
752.6	9.810
752.8	9.851
753.0	9.727
753.2	9.722
753.4	9.694
753.6	9.446
753.8	9.205
754.0	9.124
754.2	8.892
754.4	9.043
754.6	9.115
754.8	9.151
755.0	8.953
755.2	8.842
755.4	8.719
755.6	8.709
755.8	8.796
756.0	8.861
756.2	8.747
756.4	8.628
756.6	8.518
756.8	8.499
757.0	8.569
757.2	8.513
757.4	8.434
757.6	8.257
757.8	8.171
758.0	8.168
758.2	8.084
758.4	8.036
758.6	8.004
758.8	7.868
759.0	7.867
759.2	7.825
759.4	7.803
759.6	7.793
759.8	7.609
760.0	7.510
760.2	7.373
760.4	7.333
760.6	7.369
760.8	7.564
761.0	7.685
761.2	7.723
761.4	7.521
761.6	7.264
761.8	7.075
762.0	7.097
762.2	7.215
762.4	7.265
762.6	7.227
762.8	6.971
763.0	6.899
763.2	6.752
763.4	6.698
763.6	6.842
763.8	6.868
764.0	6.769
764.2	6.738
764.4	6.519
764.6	6.400
764.8	6.541
765.0	6.580
765.2	6.630
765.4	6.630
765.6	6.435
765.8	6.331
766.0	6.448
766.2	6.361
766.4	6.227
766.6	6.098
766.8	6.021
767.0	5.972
767.2	6.038
767.4	6.103
767.6	6.131
767.8	6.239
768.0	6.116
768.2	6.010
768.4	5.865
768.6	5.969
768.8	5.911
769.0	5.966
769.2	5.833
769.4	5.871
769.6	5.809
769.8	5.813
770.0	5.697
770.2	5.602
770.4	5.479
770.6	5.373
770.8	5.465
771.0	5.486
771.2	5.590
771.4	5.659
771.6	5.587
771.8	5.380
772.0	5.406
772.2	5.302
772.4	5.311
772.6	5.327
772.8	5.323
773.0	5.148
773.2	5.111
773.4	5.113
773.6	5.238
773.8	5.222
774.0	5.193
774.2	5.020
774.4	4.992
774.6	4.986
774.8	5.016
775.0	4.875
775.2	4.884
775.4	4.790
775.6	4.779
775.8	4.679
776.0	4.711
776.2	4.618
776.4	4.557
776.6	4.558
776.8	4.651
777.0	4.696
777.2	4.746
777.4	4.765
777.6	4.432
777.8	4.248
778.0	4.219
778.2	4.249
778.4	4.236
778.6	4.298
778.8	4.324
779.0	4.402
779.2	4.457
779.4	4.428
779.6	4.362
779.8	4.188
780.0	4.274
780.2	4.276
780.4	4.253
780.6	4.175
780.8	4.182
781.0	4.218
781.2	4.265
781.4	4.220
781.6	4.140
781.8	4.087
782.0	3.911
782.2	3.890
782.4	3.956
782.6	3.919
782.8	3.971
783.0	4.086
783.2	4.028
783.4	4.011
783.6	4.155
783.8	4.156
784.0	4.266
784.2	4.289
784.4	4.215
784.6	4.139
784.8	4.108
785.0	4.007
785.2	4.023
785.4	3.927
785.6	3.886
785.8	3.956
786.0	3.900
786.2	3.894
786.4	4.035
786.6	4.008
786.8	4.088
787.0	4.077
787.2	4.004
787.4	4.019
787.6	4.049
787.8	4.017
788.0	3.957
788.2	3.906
788.4	3.951
788.6	4.023
788.8	3.976
789.0	3.960
789.2	4.002
789.4	4.107
789.6	4.119
789.8	4.134
790.0	4.022
790.2	3.925
790.4	3.997
790.6	4.043
790.8	4.053
791.0	4.031
791.2	4.060
791.4	4.123
791.6	4.231
791.8	4.267
792.0	4.196
792.2	4.218
792.4	4.331
792.6	4.321
792.8	4.387
793.0	4.274
793.2	4.078
793.4	4.107
793.6	4.207
793.8	4.231
794.0	4.423
794.2	4.412
794.4	4.419
794.6	4.453
794.8	4.425
795.0	4.279
795.2	4.209
795.4	4.071
795.6	4.162
795.8	4.190
796.0	4.318
796.2	4.293
796.4	4.414
796.6	4.362
796.8	4.504
797.0	4.381
797.2	4.398
797.4	4.345
797.6	4.375
797.8	4.274
798.0	4.437
798.2	4.401
798.4	4.355
798.6	4.377
798.8	4.328
799.0	4.308
799.2	4.478
799.4	4.612
799.6	4.674
799.8	4.793
800.0	4.780
800.2	4.730
800.4	4.570
800.6	4.617
800.8	4.592
801.0	4.573
801.2	4.536
801.4	4.461
801.6	4.434
801.8	4.600
802.0	4.569
802.2	4.443
802.4	4.403
802.6	4.332
802.8	4.335
803.0	4.482
803.2	4.556
803.4	4.584
803.6	4.510
803.8	4.387
804.0	4.130
804.2	4.118
804.4	4.181
804.6	4.376
804.8	4.361
805.0	4.327
805.2	4.265
805.4	4.249
805.6	4.192
805.8	4.295
806.0	4.308
806.2	4.214
806.4	4.143
806.6	4.080
806.8	4.103
807.0	4.166
807.2	4.195
807.4	4.110
807.6	4.087
807.8	4.015
808.0	4.005
808.2	4.010
808.4	3.900
808.6	3.864
808.8	3.894
809.0	3.875
809.2	3.881
809.4	3.893
809.6	3.737
809.8	3.703
810.0	3.662
810.2	3.651
810.4	3.784
810.6	3.915
810.8	3.884
811.0	3.855
811.2	3.619
811.4	3.455
811.6	3.516
811.8	3.668
812.0	3.737
812.2	3.780
812.4	3.563
812.6	3.382
812.8	3.343
813.0	3.398
813.2	3.415
813.4	3.505
813.6	3.511
813.8	3.420
814.0	3.375
814.2	3.291
814.4	3.189
814.6	3.151
814.8	3.170
815.0	3.160
815.2	3.147
815.4	3.177
815.6	3.234
815.8	3.261
816.0	3.272
816.2	3.176
816.4	3.026
816.6	2.967
816.8	2.986
817.0	3.058
817.2	3.146
817.4	3.130
817.6	3.009
817.8	2.906
818.0	2.805
818.2	2.824
818.4	2.862
818.6	2.911
818.8	2.883
819.0	2.872
819.2	2.816
819.4	2.779
819.6	2.743
819.8	2.671
820.0	2.584
820.2	2.516
820.4	2.539
820.6	2.498
820.8	2.487
821.0	2.530
821.2	2.517
821.4	2.490
821.6	2.553
821.8	2.502
822.0	2.462
822.2	2.535
822.4	2.515
822.6	2.457
822.8	2.511
823.0	2.450
823.2	2.438
823.4	2.477
823.6	2.483
823.8	2.380
824.0	2.354
824.2	2.317
824.4	2.277
824.6	2.295
824.8	2.267
825.0	2.223
825.2	2.147
825.4	2.165
825.6	2.155
825.8	2.154
826.0	2.097
826.2	2.103
826.4	2.070
826.6	2.184
826.8	2.248
827.0	2.223
827.2	2.201
827.4	2.149
827.6	2.081
827.8	2.172
828.0	2.144
828.2	2.081
828.4	2.153
828.6	2.186
828.8	2.191
829.0	2.158
829.2	1.993
829.4	1.910
829.6	1.919
829.8	1.931
830.0	1.969
830.2	1.908
830.4	1.765
830.6	1.740
830.8	1.736
831.0	1.820
831.2	1.893
831.4	1.916
831.6	1.895
831.8	1.873
832.0	1.856
832.2	1.966
832.4	1.909
832.6	1.863
832.8	1.800
833.0	1.743
833.2	1.708
833.4	1.714
833.6	1.631
833.8	1.696
834.0	1.738
834.2	1.774
834.4	1.729
834.6	1.748
834.8	1.770
835.0	1.810
835.2	1.752
835.4	1.747
835.6	1.662
835.8	1.641
836.0	1.654
836.2	1.618
836.4	1.582
836.6	1.640
836.8	1.725
837.0	1.777
837.2	1.717
837.4	1.649
837.6	1.638
837.8	1.573
838.0	1.596
838.2	1.598
838.4	1.483
838.6	1.472
838.8	1.555
839.0	1.553
839.2	1.577
839.4	1.496
839.6	1.402
839.8	1.482
840.0	1.558
840.2	1.639
840.4	1.651
840.6	1.531
840.8	1.443
841.0	1.438
841.2	1.435
841.4	1.446
841.6	1.425
841.8	1.385
842.0	1.450
842.2	1.423
842.4	1.436
842.6	1.410
842.8	1.432
843.0	1.461
843.2	1.438
843.4	1.381
843.6	1.328
843.8	1.242
844.0	1.255
844.2	1.386
844.4	1.425
844.6	1.507
844.8	1.504
845.0	1.488
845.2	1.440
845.4	1.477
845.6	1.482
845.8	1.484
846.0	1.401
846.2	1.447
846.4	1.362
846.6	1.390
846.8	1.404
847.0	1.435
847.2	1.390
847.4	1.370
847.6	1.284
847.8	1.293
848.0	1.305
848.2	1.356
848.4	1.331
848.6	1.317
848.8	1.349
849.0	1.323
849.2	1.311
849.4	1.311
849.6	1.244
849.8	1.226
850.0	1.314

