Sample:	'20211010A(EM)
File name:	g-ni-cds 1;5 730v.FDS
Run date:	'09:41:54, 03/22/2023
Operator:	Administrator
Comment:	'

Instrument
Model:	F-4700 FL Spectrophotometer
Serial number:	2019-001
ROM Version:	5J24010 00

Instrument parameters
Measurement type:	Wavelength scan
Scan mode:	Emission
Data mode:	Fluorescence
EX WL:	400.0 nm
EM  Start WL:	420.0 nm
EM  End WL:	850.0 nm
Scan speed:	1200 nm/min
Delay:	0.0 s
EX Slit:	10.0 nm
EM Slit:	10.0 nm
PMT Voltage:	730 V
Response:	0.002 s
Corrected spectra:	Off
Shutter control:	On

Processing performed
Savitsky-Golay smoothed
Smoothing order:	3
Number of points:	7
Number of times:	1

Peak integration
Integration method:	Rectangular
Sensitivity:	1
Threshold:	1.000

Peaks
No.	Start(nm)	Apex(nm)	End(nm)	Height(Data)	Valley(nm)	Valley(Data)
1	420.0	425.0	426.8	10.91	426.8	6.102
2	426.8	427.2	428.6	8.143	428.6	6.933
3	428.6	430.0	430.8	9.409	430.8	7.462
4	430.8	432.6	433.6	11.37	433.6	7.939
5	433.6	437.6	438.8	10.33	438.8	6.962
6	438.8	441.4	442.6	10.02	442.6	6.088
7	442.6	444.2	445.0	10.27	445.0	8.486
8	445.0	446.2	447.2	10.27	447.2	7.335
9	447.2	448.0	448.8	10.73	448.8	9.293
10	448.8	450.2	450.8	10.70	450.8	8.413
11	450.8	452.0	452.8	10.95	452.8	9.036
12	452.8	453.4	454.4	12.92	454.4	8.989
13	454.4	456.0	456.6	11.94	456.6	9.706
14	456.6	457.2	457.8	13.09	457.8	10.87
15	457.8	460.4	461.0	14.20	461.0	11.79
16	461.0	463.2	463.8	15.24	463.8	13.92
17	463.8	533.4	534.4	8482	534.4	8456
18	534.4	535.2	536.0	8530	536.0	8451
19	536.0	538.0	538.8	8613	538.8	8526
20	538.8	540.4	542.8	8563	542.8	8448
21	542.8	544.0	546.8	8486	546.8	8265
22	546.8	547.4	688.2	8346	688.2	266.4
23	688.2	689.0	691.8	287.8	691.8	246.0
24	691.8	692.6	702.0	252.3	702.0	187.7
25	702.0	703.0	706.8	197.8	706.8	170.8
26	706.8	707.4	709.2	180.6	709.2	158.8
27	709.2	710.0	711.8	166.2	711.8	154.7
28	711.8	712.8	716.6	161.1	716.6	133.1
29	716.6	717.2	723.0	140.5	723.0	113.0
30	723.0	723.6	728.6	121.2	728.6	98.85
31	728.6	729.4	730.4	104.1	730.4	95.94
32	730.4	730.8	742.6	103.3	742.6	65.31
33	742.6	743.2	744.8	70.48	744.8	59.99
34	744.8	745.4	748.6	67.47	748.6	58.06
35	748.6	750.6	753.4	61.90	753.4	48.70
36	753.4	754.0	754.6	55.61	754.6	46.59
37	754.6	755.4	757.0	53.02	757.0	45.09
38	757.0	757.8	759.0	50.40	759.0	44.43
39	759.0	759.8	760.4	47.89	760.4	42.88
40	760.4	761.2	769.0	48.22	769.0	31.73
41	769.0	770.4	773.0	38.71	773.0	28.61
42	773.0	775.4	780.6	32.76	780.6	24.69
43	780.6	781.6	783.2	31.16	783.2	24.19
44	783.2	783.8	785.0	27.25	785.0	25.14
45	785.0	787.4	790.2	29.66	790.2	24.99
46	790.2	792.6	794.4	27.69	794.4	24.64
47	794.4	795.4	797.2	28.70	797.2	25.12
48	797.2	799.0	799.8	28.02	799.8	20.90
49	799.8	800.6	802.2	27.16	802.2	24.24
50	802.2	803.4	805.8	28.48	805.8	22.13
51	805.8	806.8	808.8	27.64	808.8	21.18
52	808.8	809.6	811.6	25.08	811.6	20.71
53	811.6	813.2	814.8	23.69	814.8	19.10
54	814.8	815.6	816.4	22.68	816.4	17.28
55	816.4	817.4	818.8	22.71	818.8	19.31
56	818.8	819.4	820.2	21.36	820.2	18.18
57	820.2	822.0	823.0	22.30	823.0	16.97
58	823.0	823.6	825.0	19.71	825.0	17.62
59	825.0	825.6	828.2	21.80	828.2	12.50
60	828.2	829.0	830.8	16.35	830.8	12.63
61	830.8	831.4	833.6	15.69	833.6	11.11
62	833.6	834.4	836.2	14.79	836.2	11.38
63	836.2	837.6	840.6	13.45	840.6	9.975
64	840.6	842.4	845.6	12.89	845.6	9.083
65	845.6	846.6	847.2	10.65	847.2	8.916
66	847.2	848.2	849.0	10.53	849.0	8.317

Data points
nm	Data
420.0	6.201
420.2	9.038
420.4	9.621
420.6	8.978
420.8	8.857
421.0	8.732
421.2	8.727
421.4	8.208
421.6	8.071
421.8	8.016
422.0	9.381
422.2	10.31
422.4	10.19
422.6	8.731
422.8	8.304
423.0	7.828
423.2	8.916
423.4	9.149
423.6	9.276
423.8	8.371
424.0	7.642
424.2	7.168
424.4	7.734
424.6	8.888
424.8	10.17
425.0	10.91
425.2	10.62
425.4	9.586
425.6	8.555
425.8	8.279
426.0	8.988
426.2	8.858
426.4	7.665
426.6	6.424
426.8	6.102
427.0	6.363
427.2	8.143
427.4	8.026
427.6	7.357
427.8	7.081
428.0	7.137
428.2	7.265
428.4	7.722
428.6	6.933
428.8	6.980
429.0	7.317
429.2	8.225
429.4	8.591
429.6	8.861
429.8	9.086
430.0	9.409
430.2	9.083
430.4	8.167
430.6	7.781
430.8	7.462
431.0	7.899
431.2	8.518
431.4	9.049
431.6	8.447
431.8	8.911
432.0	9.177
432.2	9.798
432.4	10.25
432.6	11.37
432.8	10.28
433.0	9.202
433.2	8.639
433.4	8.170
433.6	7.939
433.8	8.870
434.0	8.434
434.2	8.216
434.4	8.566
434.6	8.685
434.8	8.349
435.0	8.897
435.2	9.233
435.4	9.375
435.6	9.145
435.8	8.456
436.0	8.009
436.2	9.385
436.4	10.08
436.6	9.768
436.8	9.510
437.0	8.575
437.2	8.740
437.4	10.09
437.6	10.33
437.8	9.791
438.0	9.658
438.2	8.518
438.4	7.712
438.6	7.239
438.8	6.962
439.0	7.441
439.2	8.018
439.4	8.147
439.6	8.732
439.8	8.785
440.0	8.843
440.2	9.916
440.4	10.47
440.6	9.467
440.8	9.340
441.0	9.323
441.2	9.409
441.4	10.02
441.6	9.995
441.8	9.684
442.0	9.149
442.2	8.344
442.4	7.265
442.6	6.088
442.8	7.326
443.0	8.945
443.2	9.847
443.4	9.680
443.6	9.513
443.8	8.889
444.0	10.27
444.2	10.27
444.4	9.471
444.6	8.651
444.8	8.491
445.0	8.486
445.2	8.599
445.4	8.560
445.6	8.903
445.8	9.416
446.0	9.020
446.2	10.27
446.4	9.648
446.6	9.384
446.8	9.246
447.0	8.757
447.2	7.335
447.4	8.926
447.6	9.754
447.8	10.71
448.0	10.73
448.2	10.07
448.4	9.382
448.6	9.648
448.8	9.293
449.0	9.578
449.2	9.607
449.4	9.562
449.6	9.712
449.8	9.933
450.0	10.21
450.2	10.70
450.4	9.914
450.6	9.661
450.8	8.413
451.0	8.489
451.2	9.540
451.4	10.52
451.6	10.39
451.8	10.72
452.0	10.95
452.2	10.67
452.4	10.03
452.6	9.508
452.8	9.036
453.0	10.16
453.2	12.33
453.4	12.92
453.6	12.76
453.8	11.53
454.0	9.860
454.2	9.165
454.4	8.989
454.6	9.361
454.8	9.987
455.0	10.15
455.2	10.68
455.4	10.56
455.6	10.97
455.8	11.92
456.0	11.94
456.2	10.89
456.4	9.866
456.6	9.706
456.8	10.89
457.0	12.51
457.2	13.09
457.4	12.42
457.6	11.15
457.8	10.87
458.0	11.53
458.2	11.77
458.4	11.82
458.6	12.17
458.8	12.17
459.0	12.23
459.2	12.48
459.4	11.80
459.6	11.99
459.8	11.73
460.0	12.36
460.2	13.50
460.4	14.20
460.6	13.81
460.8	13.75
461.0	11.79
461.2	12.02
461.4	12.25
461.6	13.00
461.8	13.07
462.0	13.24
462.2	12.23
462.4	13.13
462.6	13.68
462.8	14.54
463.0	14.99
463.2	15.24
463.4	13.98
463.6	14.18
463.8	13.92
464.0	14.41
464.2	14.41
464.4	14.74
464.6	14.56
464.8	15.61
465.0	17.26
465.2	18.99
465.4	19.78
465.6	19.58
465.8	18.07
466.0	16.80
466.2	17.76
466.4	17.98
466.6	19.08
466.8	20.67
467.0	22.29
467.2	24.20
467.4	24.36
467.6	24.85
467.8	23.66
468.0	23.87
468.2	24.99
468.4	24.70
468.6	25.17
468.8	27.27
469.0	27.70
469.2	28.34
469.4	29.36
469.6	29.57
469.8	31.03
470.0	30.86
470.2	30.65
470.4	30.43
470.6	33.20
470.8	35.91
471.0	35.51
471.2	36.04
471.4	36.07
471.6	36.06
471.8	38.21
472.0	40.05
472.2	40.61
472.4	43.26
472.6	43.15
472.8	43.21
473.0	43.75
473.2	43.58
473.4	45.44
473.6	46.96
473.8	49.12
474.0	52.91
474.2	55.88
474.4	59.47
474.6	60.80
474.8	62.19
475.0	63.37
475.2	65.73
475.4	65.97
475.6	70.88
475.8	71.13
476.0	73.88
476.2	75.22
476.4	77.70
476.6	79.52
476.8	83.92
477.0	85.78
477.2	86.73
477.4	88.86
477.6	90.14
477.8	93.43
478.0	98.45
478.2	104.5
478.4	108.2
478.6	112.2
478.8	116.7
479.0	118.4
479.2	121.4
479.4	126.3
479.6	130.0
479.8	132.9
480.0	135.2
480.2	135.4
480.4	140.6
480.6	149.4
480.8	156.1
481.0	163.7
481.2	168.6
481.4	173.4
481.6	179.2
481.8	180.6
482.0	183.1
482.2	189.8
482.4	198.2
482.6	211.3
482.8	220.4
483.0	224.3
483.2	229.7
483.4	235.9
483.6	242.3
483.8	252.1
484.0	259.2
484.2	264.5
484.4	273.2
484.6	284.6
484.8	296.2
485.0	311.7
485.2	321.6
485.4	326.2
485.6	334.5
485.8	345.0
486.0	352.3
486.2	369.0
486.4	381.1
486.6	396.4
486.8	409.8
487.0	419.1
487.2	429.2
487.4	440.5
487.6	449.7
487.8	464.9
488.0	480.2
488.2	496.2
488.4	511.3
488.6	528.5
488.8	535.5
489.0	550.2
489.2	566.0
489.4	583.8
489.6	598.4
489.8	621.5
490.0	630.2
490.2	646.2
490.4	657.9
490.6	676.4
490.8	700.8
491.0	727.7
491.2	738.3
491.4	754.0
491.6	766.4
491.8	786.3
492.0	813.4
492.2	844.3
492.4	870.7
492.6	902.0
492.8	924.2
493.0	952.2
493.2	978.7
493.4	1008
493.6	1033
493.8	1048
494.0	1059
494.2	1087
494.4	1110
494.6	1147
494.8	1178
495.0	1195
495.2	1205
495.4	1228
495.6	1266
495.8	1310
496.0	1362
496.2	1386
496.4	1399
496.6	1422
496.8	1460
497.0	1494
497.2	1547
497.4	1580
497.6	1607
497.8	1627
498.0	1655
498.2	1682
498.4	1720
498.6	1767
498.8	1802
499.0	1845
499.2	1888
499.4	1919
499.6	1951
499.8	1993
500.0	2039
500.2	2094
500.4	2134
500.6	2171
500.8	2202
501.0	2232
501.2	2286
501.4	2341
501.6	2388
501.8	2430
502.0	2455
502.2	2480
502.4	2526
502.6	2582
502.8	2637
503.0	2691
503.2	2743
503.4	2779
503.6	2821
503.8	2859
504.0	2911
504.2	2946
504.4	2980
504.6	3032
504.8	3097
505.0	3159
505.2	3207
505.4	3218
505.6	3249
505.8	3310
506.0	3368
506.2	3431
506.4	3477
506.6	3524
506.8	3589
507.0	3651
507.2	3694
507.4	3743
507.6	3788
507.8	3854
508.0	3911
508.2	3969
508.4	4028
508.6	4089
508.8	4124
509.0	4185
509.2	4225
509.4	4272
509.6	4317
509.8	4371
510.0	4420
510.2	4493
510.4	4545
510.6	4583
510.8	4623
511.0	4654
511.2	4695
511.4	4737
511.6	4773
511.8	4806
512.0	4882
512.2	4938
512.4	4987
512.6	5036
512.8	5073
513.0	5117
513.2	5188
513.4	5252
513.6	5297
513.8	5353
514.0	5397
514.2	5458
514.4	5505
514.6	5551
514.8	5588
515.0	5637
515.2	5684
515.4	5730
515.6	5752
515.8	5804
516.0	5851
516.2	5911
516.4	5968
516.6	6028
516.8	6080
517.0	6147
517.2	6185
517.4	6232
517.6	6255
517.8	6306
518.0	6336
518.2	6379
518.4	6421
518.6	6494
518.8	6538
519.0	6580
519.2	6603
519.4	6627
519.6	6647
519.8	6691
520.0	6736
520.2	6795
520.4	6859
520.6	6906
520.8	6925
521.0	6951
521.2	6998
521.4	7058
521.6	7092
521.8	7117
522.0	7143
522.2	7188
522.4	7248
522.6	7302
522.8	7330
523.0	7343
523.2	7354
523.4	7379
523.6	7390
523.8	7395
524.0	7439
524.2	7474
524.4	7516
524.6	7570
524.8	7589
525.0	7613
525.2	7652
525.4	7681
525.6	7707
525.8	7723
526.0	7753
526.2	7800
526.4	7833
526.6	7848
526.8	7887
527.0	7908
527.2	7956
527.4	7979
527.6	7989
527.8	7982
528.0	7987
528.2	7982
528.4	7996
528.6	8024
528.8	8029
529.0	8073
529.2	8105
529.4	8130
529.6	8154
529.8	8191
530.0	8185
530.2	8199
530.4	8206
530.6	8210
530.8	8232
531.0	8271
531.2	8283
531.4	8293
531.6	8290
531.8	8303
532.0	8300
532.2	8311
532.4	8341
532.6	8366
532.8	8425
533.0	8470
533.2	8481
533.4	8482
533.6	8479
533.8	8458
534.0	8473
534.2	8459
534.4	8456
534.6	8458
534.8	8487
535.0	8526
535.2	8530
535.4	8526
535.6	8479
535.8	8456
536.0	8451
536.2	8457
536.4	8465
536.6	8514
536.8	8521
537.0	8531
537.2	8529
537.4	8531
537.6	8549
537.8	8599
538.0	8613
538.2	8596
538.4	8561
538.6	8546
538.8	8526
539.0	8527
539.2	8544
539.4	8535
539.6	8527
539.8	8555
540.0	8555
540.2	8544
540.4	8563
540.6	8500
540.8	8484
541.0	8503
541.2	8488
541.4	8495
541.6	8523
541.8	8512
542.0	8498
542.2	8493
542.4	8461
542.6	8452
542.8	8448
543.0	8470
543.2	8449
543.4	8449
543.6	8460
543.8	8465
544.0	8486
544.2	8476
544.4	8453
544.6	8432
544.8	8399
545.0	8343
545.2	8355
545.4	8341
545.6	8352
545.8	8398
546.0	8406
546.2	8346
546.4	8322
546.6	8269
546.8	8265
547.0	8316
547.2	8332
547.4	8346
547.6	8343
547.8	8314
548.0	8309
548.2	8297
548.4	8267
548.6	8246
548.8	8206
549.0	8191
549.2	8184
549.4	8200
549.6	8181
549.8	8164
550.0	8143
550.2	8115
550.4	8094
550.6	8100
550.8	8061
551.0	8060
551.2	8037
551.4	8011
551.6	7993
551.8	7985
552.0	7964
552.2	7964
552.4	7965
552.6	7961
552.8	7949
553.0	7942
553.2	7894
553.4	7886
553.6	7867
553.8	7845
554.0	7834
554.2	7822
554.4	7802
554.6	7774
554.8	7739
555.0	7726
555.2	7719
555.4	7728
555.6	7730
555.8	7683
556.0	7633
556.2	7616
556.4	7604
556.6	7609
556.8	7610
557.0	7587
557.2	7558
557.4	7558
557.6	7524
557.8	7481
558.0	7439
558.2	7394
558.4	7392
558.6	7394
558.8	7387
559.0	7381
559.2	7342
559.4	7313
559.6	7325
559.8	7325
560.0	7312
560.2	7298
560.4	7236
560.6	7182
560.8	7177
561.0	7182
561.2	7176
561.4	7179
561.6	7141
561.8	7099
562.0	7057
562.2	7044
562.4	7009
562.6	7034
562.8	7005
563.0	6995
563.2	6976
563.4	6965
563.6	6913
563.8	6918
564.0	6894
564.2	6894
564.4	6886
564.6	6878
564.8	6838
565.0	6788
565.2	6760
565.4	6733
565.6	6699
565.8	6697
566.0	6691
566.2	6678
566.4	6677
566.6	6651
566.8	6622
567.0	6598
567.2	6572
567.4	6547
567.6	6512
567.8	6479
568.0	6478
568.2	6470
568.4	6475
568.6	6440
568.8	6417
569.0	6409
569.2	6417
569.4	6383
569.6	6359
569.8	6319
570.0	6286
570.2	6266
570.4	6251
570.6	6206
570.8	6180
571.0	6170
571.2	6138
571.4	6118
571.6	6134
571.8	6139
572.0	6113
572.2	6090
572.4	6051
572.6	5998
572.8	5999
573.0	5984
573.2	5955
573.4	5917
573.6	5896
573.8	5872
574.0	5858
574.2	5846
574.4	5845
574.6	5820
574.8	5804
575.0	5785
575.2	5755
575.4	5742
575.6	5725
575.8	5704
576.0	5682
576.2	5651
576.4	5629
576.6	5625
576.8	5625
577.0	5613
577.2	5577
577.4	5537
577.6	5502
577.8	5490
578.0	5491
578.2	5484
578.4	5444
578.6	5399
578.8	5377
579.0	5391
579.2	5399
579.4	5388
579.6	5355
579.8	5293
580.0	5260
580.2	5244
580.4	5234
580.6	5221
580.8	5194
581.0	5166
581.2	5148
581.4	5133
581.6	5109
581.8	5076
582.0	5041
582.2	5024
582.4	5026
582.6	5046
582.8	5020
583.0	4977
583.2	4930
583.4	4895
583.6	4889
583.8	4891
584.0	4884
584.2	4855
584.4	4835
584.6	4814
584.8	4828
585.0	4794
585.2	4765
585.4	4722
585.6	4714
585.8	4685
586.0	4694
586.2	4659
586.4	4625
586.6	4618
586.8	4636
587.0	4627
587.2	4608
587.4	4583
587.6	4533
587.8	4508
588.0	4488
588.2	4461
588.4	4420
588.6	4404
588.8	4417
589.0	4402
589.2	4383
589.4	4355
589.6	4324
589.8	4313
590.0	4333
590.2	4317
590.4	4302
590.6	4269
590.8	4253
591.0	4222
591.2	4193
591.4	4155
591.6	4135
591.8	4119
592.0	4128
592.2	4119
592.4	4112
592.6	4089
592.8	4068
593.0	4049
593.2	4042
593.4	4043
593.6	4020
593.8	3998
594.0	3951
594.2	3917
594.4	3885
594.6	3878
594.8	3862
595.0	3858
595.2	3827
595.4	3827
595.6	3810
595.8	3786
596.0	3779
596.2	3764
596.4	3734
596.6	3714
596.8	3691
597.0	3668
597.2	3652
597.4	3650
597.6	3642
597.8	3619
598.0	3605
598.2	3575
598.4	3550
598.6	3542
598.8	3542
599.0	3527
599.2	3522
599.4	3498
599.6	3474
599.8	3458
600.0	3458
600.2	3456
600.4	3443
600.6	3426
600.8	3387
601.0	3363
601.2	3345
601.4	3330
601.6	3317
601.8	3314
602.0	3300
602.2	3282
602.4	3270
602.6	3253
602.8	3253
603.0	3243
603.2	3226
603.4	3191
603.6	3175
603.8	3158
604.0	3145
604.2	3129
604.4	3133
604.6	3133
604.8	3126
605.0	3099
605.2	3050
605.4	3011
605.6	2991
605.8	2992
606.0	2978
606.2	2967
606.4	2944
606.6	2936
606.8	2914
607.0	2912
607.2	2897
607.4	2888
607.6	2867
607.8	2858
608.0	2838
608.2	2839
608.4	2841
608.6	2817
608.8	2776
609.0	2744
609.2	2727
609.4	2726
609.6	2730
609.8	2718
610.0	2700
610.2	2688
610.4	2692
610.6	2686
610.8	2679
611.0	2663
611.2	2643
611.4	2623
611.6	2608
611.8	2587
612.0	2564
612.2	2555
612.4	2546
612.6	2534
612.8	2540
613.0	2528
613.2	2510
613.4	2490
613.6	2472
613.8	2449
614.0	2454
614.2	2431
614.4	2427
614.6	2401
614.8	2398
615.0	2379
615.2	2381
615.4	2353
615.6	2334
615.8	2316
616.0	2317
616.2	2299
616.4	2297
616.6	2283
616.8	2281
617.0	2272
617.2	2253
617.4	2228
617.6	2220
617.8	2192
618.0	2211
618.2	2194
618.4	2177
618.6	2170
618.8	2165
619.0	2127
619.2	2144
619.4	2130
619.6	2112
619.8	2095
620.0	2083
620.2	2065
620.4	2070
620.6	2059
620.8	2036
621.0	2014
621.2	2016
621.4	2013
621.6	2003
621.8	1991
622.0	1971
622.2	1955
622.4	1944
622.6	1934
622.8	1930
623.0	1918
623.2	1918
623.4	1916
623.6	1891
623.8	1872
624.0	1856
624.2	1835
624.4	1820
624.6	1818
624.8	1811
625.0	1811
625.2	1815
625.4	1808
625.6	1789
625.8	1780
626.0	1758
626.2	1739
626.4	1736
626.6	1712
626.8	1707
627.0	1705
627.2	1698
627.4	1688
627.6	1682
627.8	1655
628.0	1653
628.2	1659
628.4	1670
628.6	1657
628.8	1641
629.0	1617
629.2	1605
629.4	1605
629.6	1601
629.8	1563
630.0	1548
630.2	1535
630.4	1532
630.6	1544
630.8	1546
631.0	1524
631.2	1514
631.4	1494
631.6	1469
631.8	1464
632.0	1465
632.2	1456
632.4	1451
632.6	1438
632.8	1425
633.0	1416
633.2	1421
633.4	1410
633.6	1407
633.8	1391
634.0	1387
634.2	1371
634.4	1372
634.6	1373
634.8	1371
635.0	1354
635.2	1345
635.4	1335
635.6	1329
635.8	1328
636.0	1319
636.2	1300
636.4	1289
636.6	1283
636.8	1272
637.0	1258
637.2	1246
637.4	1239
637.6	1239
637.8	1241
638.0	1240
638.2	1227
638.4	1215
638.6	1211
638.8	1203
639.0	1200
639.2	1192
639.4	1186
639.6	1184
639.8	1179
640.0	1176
640.2	1166
640.4	1152
640.6	1150
640.8	1141
641.0	1128
641.2	1120
641.4	1107
641.6	1094
641.8	1097
642.0	1098
642.2	1102
642.4	1098
642.6	1087
642.8	1067
643.0	1066
643.2	1063
643.4	1058
643.6	1046
643.8	1038
644.0	1025
644.2	1029
644.4	1025
644.6	1015
644.8	1008
645.0	1009
645.2	1000
645.4	1002
645.6	994.6
645.8	989.7
646.0	979.4
646.2	968.9
646.4	957.8
646.6	955.0
646.8	954.4
647.0	952.1
647.2	944.5
647.4	941.5
647.6	928.5
647.8	922.3
648.0	921.7
648.2	916.6
648.4	909.5
648.6	905.4
648.8	894.8
649.0	890.1
649.2	883.6
649.4	872.6
649.6	864.9
649.8	866.5
650.0	870.1
650.2	874.3
650.4	873.4
650.6	861.0
650.8	854.3
651.0	838.5
651.2	832.7
651.4	833.4
651.6	834.8
651.8	827.1
652.0	823.5
652.2	802.5
652.4	799.9
652.6	794.7
652.8	797.0
653.0	793.2
653.2	803.3
653.4	797.0
653.6	794.4
653.8	785.4
654.0	773.4
654.2	763.0
654.4	764.5
654.6	758.6
654.8	762.0
655.0	754.0
655.2	737.3
655.4	731.6
655.6	723.4
655.8	724.8
656.0	733.5
656.2	724.9
656.4	719.2
656.6	712.8
656.8	706.1
657.0	705.8
657.2	704.8
657.4	695.3
657.6	690.2
657.8	687.7
658.0	687.6
658.2	684.2
658.4	681.2
658.6	677.1
658.8	667.4
659.0	664.4
659.2	656.0
659.4	652.7
659.6	653.1
659.8	651.1
660.0	643.5
660.2	639.6
660.4	629.7
660.6	623.5
660.8	619.0
661.0	614.8
661.2	610.0
661.4	612.6
661.6	612.3
661.8	607.6
662.0	603.4
662.2	598.3
662.4	589.6
662.6	595.0
662.8	587.2
663.0	583.9
663.2	577.0
663.4	578.5
663.6	577.9
663.8	579.3
664.0	564.8
664.2	564.1
664.4	553.4
664.6	557.7
664.8	560.7
665.0	549.9
665.2	536.8
665.4	534.1
665.6	523.7
665.8	531.2
666.0	537.1
666.2	535.9
666.4	531.6
666.6	534.1
666.8	527.0
667.0	529.2
667.2	520.3
667.4	518.9
667.6	516.1
667.8	511.2
668.0	504.5
668.2	500.5
668.4	493.4
668.6	496.3
668.8	496.7
669.0	486.7
669.2	485.8
669.4	484.5
669.6	481.0
669.8	479.2
670.0	479.0
670.2	473.3
670.4	467.1
670.6	461.6
670.8	456.1
671.0	452.7
671.2	458.6
671.4	462.9
671.6	458.5
671.8	457.5
672.0	456.3
672.2	450.9
672.4	446.9
672.6	442.3
672.8	443.4
673.0	446.0
673.2	448.8
673.4	441.4
673.6	425.7
673.8	412.4
674.0	413.1
674.2	413.2
674.4	415.6
674.6	415.7
674.8	408.1
675.0	401.0
675.2	397.5
675.4	393.3
675.6	393.6
675.8	395.1
676.0	398.2
676.2	398.3
676.4	398.5
676.6	393.9
676.8	390.0
677.0	386.8
677.2	385.7
677.4	383.1
677.6	386.6
677.8	386.9
678.0	379.3
678.2	380.1
678.4	372.8
678.6	371.2
678.8	370.2
679.0	368.6
679.2	360.5
679.4	360.8
679.6	359.3
679.8	361.8
680.0	362.4
680.2	357.5
680.4	355.9
680.6	348.9
680.8	349.7
681.0	350.3
681.2	348.3
681.4	341.8
681.6	333.9
681.8	324.7
682.0	328.3
682.2	331.4
682.4	332.0
682.6	334.6
682.8	330.7
683.0	326.6
683.2	325.9
683.4	322.1
683.6	322.6
683.8	320.1
684.0	325.1
684.2	317.3
684.4	315.2
684.6	310.6
684.8	312.7
685.0	307.3
685.2	310.5
685.4	302.2
685.6	297.5
685.8	293.9
686.0	298.4
686.2	299.4
686.4	296.0
686.6	287.6
686.8	279.7
687.0	278.5
687.2	287.4
687.4	294.8
687.6	292.6
687.8	285.2
688.0	275.4
688.2	266.4
688.4	271.3
688.6	279.2
688.8	286.1
689.0	287.8
689.2	281.6
689.4	273.6
689.6	267.7
689.8	264.1
690.0	259.4
690.2	257.5
690.4	260.4
690.6	263.2
690.8	260.9
691.0	257.1
691.2	254.7
691.4	251.3
691.6	248.7
691.8	246.0
692.0	246.5
692.2	246.0
692.4	251.1
692.6	252.3
692.8	251.1
693.0	249.7
693.2	248.6
693.4	243.4
693.6	244.8
693.8	244.0
694.0	241.7
694.2	242.9
694.4	240.6
694.6	240.3
694.8	244.2
695.0	239.1
695.2	230.7
695.4	231.1
695.6	225.9
695.8	228.2
696.0	230.5
696.2	228.9
696.4	227.3
696.6	227.7
696.8	223.3
697.0	223.8
697.2	221.9
697.4	217.2
697.6	221.8
697.8	220.2
698.0	219.8
698.2	216.6
698.4	214.1
698.6	211.0
698.8	214.0
699.0	212.5
699.2	208.7
699.4	209.1
699.6	211.0
699.8	206.2
700.0	201.7
700.2	200.7
700.4	200.8
700.6	204.7
700.8	202.7
701.0	197.5
701.2	195.1
701.4	193.3
701.6	195.1
701.8	193.8
702.0	187.7
702.2	188.9
702.4	192.1
702.6	194.5
702.8	197.7
703.0	197.8
703.2	193.9
703.4	192.0
703.6	186.1
703.8	188.6
704.0	189.8
704.2	184.9
704.4	180.1
704.6	179.0
704.8	177.6
705.0	184.4
705.2	185.9
705.4	183.4
705.6	176.8
705.8	178.4
706.0	175.4
706.2	174.3
706.4	173.5
706.6	172.3
706.8	170.8
707.0	175.1
707.2	178.5
707.4	180.6
707.6	179.8
707.8	175.9
708.0	170.1
708.2	166.8
708.4	167.6
708.6	163.5
708.8	162.2
709.0	159.9
709.2	158.8
709.4	160.6
709.6	162.1
709.8	162.1
710.0	166.2
710.2	165.0
710.4	159.8
710.6	156.5
710.8	158.7
711.0	160.1
711.2	165.1
711.4	163.8
711.6	160.2
711.8	154.7
712.0	155.0
712.2	156.7
712.4	160.1
712.6	160.9
712.8	161.1
713.0	157.4
713.2	156.1
713.4	155.0
713.6	153.4
713.8	152.7
714.0	152.7
714.2	149.5
714.4	147.2
714.6	143.6
714.8	142.9
715.0	145.1
715.2	149.0
715.4	146.4
715.6	143.2
715.8	141.1
716.0	139.5
716.2	137.5
716.4	135.6
716.6	133.1
716.8	134.4
717.0	138.2
717.2	140.5
717.4	139.1
717.6	139.2
717.8	134.6
718.0	136.1
718.2	136.7
718.4	137.0
718.6	135.0
718.8	135.9
719.0	135.7
719.2	139.4
719.4	136.4
719.6	132.9
719.8	131.6
720.0	131.0
720.2	132.9
720.4	133.4
720.6	129.1
720.8	125.0
721.0	125.6
721.2	125.6
721.4	125.9
721.6	123.6
721.8	123.5
722.0	123.2
722.2	125.4
722.4	125.2
722.6	121.7
722.8	117.0
723.0	113.0
723.2	114.5
723.4	118.8
723.6	121.2
723.8	119.5
724.0	118.6
724.2	116.5
724.4	116.1
724.6	118.7
724.8	118.5
725.0	116.6
725.2	116.2
725.4	116.8
725.6	112.5
725.8	111.3
726.0	111.0
726.2	108.2
726.4	109.3
726.6	111.6
726.8	112.5
727.0	108.6
727.2	107.1
727.4	101.3
727.6	99.73
727.8	101.3
728.0	103.9
728.2	102.2
728.4	101.8
728.6	98.85
728.8	99.57
729.0	101.0
729.2	101.9
729.4	104.1
729.6	104.1
729.8	100.6
730.0	99.22
730.2	97.44
730.4	95.94
730.6	100.8
730.8	103.3
731.0	102.8
731.2	101.6
731.4	98.02
731.6	96.38
731.8	97.04
732.0	95.61
732.2	92.63
732.4	94.90
732.6	96.05
732.8	97.96
733.0	95.08
733.2	91.78
733.4	89.04
733.6	89.35
733.8	91.10
734.0	91.04
734.2	88.08
734.4	86.15
734.6	87.00
734.8	86.82
735.0	88.08
735.2	88.89
735.4	87.95
735.6	85.63
735.8	86.76
736.0	85.41
736.2	85.37
736.4	84.23
736.6	83.07
736.8	81.14
737.0	81.90
737.2	80.36
737.4	81.73
737.6	81.19
737.8	82.06
738.0	80.57
738.2	79.08
738.4	77.42
738.6	75.34
738.8	75.11
739.0	75.33
739.2	73.84
739.4	74.75
739.6	77.37
739.8	78.38
740.0	78.82
740.2	73.55
740.4	71.73
740.6	73.04
740.8	73.54
741.0	76.82
741.2	76.09
741.4	70.62
741.6	71.03
741.8	72.46
742.0	71.21
742.2	68.95
742.4	66.43
742.6	65.31
742.8	66.57
743.0	69.99
743.2	70.48
743.4	68.39
743.6	67.34
743.8	69.10
744.0	69.62
744.2	68.80
744.4	63.65
744.6	62.29
744.8	59.99
745.0	64.54
745.2	67.13
745.4	67.47
745.6	64.56
745.8	65.29
746.0	62.79
746.2	64.25
746.4	61.16
746.6	61.29
746.8	61.15
747.0	62.20
747.2	62.22
747.4	61.09
747.6	60.58
747.8	62.59
748.0	60.83
748.2	60.91
748.4	59.30
748.6	58.06
748.8	58.47
749.0	59.85
749.2	58.88
749.4	60.56
749.6	59.42
749.8	58.81
750.0	58.68
750.2	59.54
750.4	59.86
750.6	61.90
750.8	60.86
751.0	60.45
751.2	59.88
751.4	58.22
751.6	57.10
751.8	58.39
752.0	58.63
752.2	59.75
752.4	59.83
752.6	57.54
752.8	53.93
753.0	50.06
753.2	48.95
753.4	48.70
753.6	53.89
753.8	55.01
754.0	55.61
754.2	52.35
754.4	49.67
754.6	46.59
754.8	47.92
755.0	49.95
755.2	52.01
755.4	53.02
755.6	52.65
755.8	50.44
756.0	48.38
756.2	48.36
756.4	47.74
756.6	47.23
756.8	45.48
757.0	45.09
757.2	46.00
757.4	47.83
757.6	50.30
757.8	50.40
758.0	48.52
758.2	47.52
758.4	45.49
758.6	45.52
758.8	44.75
759.0	44.43
759.2	46.01
759.4	47.39
759.6	47.35
759.8	47.89
760.0	45.17
760.2	43.74
760.4	42.88
760.6	43.54
760.8	45.70
761.0	47.35
761.2	48.22
761.4	48.10
761.6	46.34
761.8	45.45
762.0	45.17
762.2	44.91
762.4	44.96
762.6	43.64
762.8	43.06
763.0	41.52
763.2	42.94
763.4	43.11
763.6	42.21
763.8	41.07
764.0	41.03
764.2	40.77
764.4	41.98
764.6	42.97
764.8	43.05
765.0	42.01
765.2	40.82
765.4	37.87
765.6	36.65
765.8	38.64
766.0	40.06
766.2	39.19
766.4	39.03
766.6	36.42
766.8	37.65
767.0	38.95
767.2	37.89
767.4	37.35
767.6	37.28
767.8	36.65
768.0	37.94
768.2	37.18
768.4	35.32
768.6	35.43
768.8	32.61
769.0	31.73
769.2	33.18
769.4	33.38
769.6	34.56
769.8	36.26
770.0	36.81
770.2	37.53
770.4	38.71
770.6	35.48
770.8	32.61
771.0	31.37
771.2	33.15
771.4	34.22
771.6	36.00
771.8	34.46
772.0	33.63
772.2	32.10
772.4	32.15
772.6	30.75
772.8	29.65
773.0	28.61
773.2	30.73
773.4	30.82
773.6	31.81
773.8	31.60
774.0	29.88
774.2	29.93
774.4	31.22
774.6	31.67
774.8	32.52
775.0	32.73
775.2	31.82
775.4	32.76
775.6	32.65
775.8	31.88
776.0	31.97
776.2	32.52
776.4	31.48
776.6	31.30
776.8	31.33
777.0	30.43
777.2	30.91
777.4	30.12
777.6	29.54
777.8	29.87
778.0	29.54
778.2	28.93
778.4	29.71
778.6	29.78
778.8	30.73
779.0	29.44
779.2	27.93
779.4	26.79
779.6	29.42
779.8	31.42
780.0	31.70
780.2	27.97
780.4	26.36
780.6	24.69
780.8	27.26
781.0	29.11
781.2	30.85
781.4	30.67
781.6	31.16
781.8	29.31
782.0	27.84
782.2	27.79
782.4	27.70
782.6	28.24
782.8	27.93
783.0	26.17
783.2	24.19
783.4	25.24
783.6	26.60
783.8	27.25
784.0	26.71
784.2	26.25
784.4	25.84
784.6	25.75
784.8	25.95
785.0	25.14
785.2	25.52
785.4	26.07
785.6	25.94
785.8	26.41
786.0	26.65
786.2	25.64
786.4	26.21
786.6	26.42
786.8	25.76
787.0	27.68
787.2	28.97
787.4	29.66
787.6	29.12
787.8	27.73
788.0	26.46
788.2	25.84
788.4	26.08
788.6	26.99
788.8	26.75
789.0	25.90
789.2	26.43
789.4	26.35
789.6	26.52
789.8	26.62
790.0	25.56
790.2	24.99
790.4	25.67
790.6	25.53
790.8	26.68
791.0	28.09
791.2	26.56
791.4	27.57
791.6	27.22
791.8	25.74
792.0	25.85
792.2	26.55
792.4	26.85
792.6	27.69
792.8	27.59
793.0	26.36
793.2	26.13
793.4	27.22
793.6	27.38
793.8	25.95
794.0	25.85
794.2	24.83
794.4	24.64
794.6	26.91
794.8	26.85
795.0	26.10
795.2	27.21
795.4	28.70
795.6	27.94
795.8	28.40
796.0	26.92
796.2	26.65
796.4	27.29
796.6	28.04
796.8	26.67
797.0	25.77
797.2	25.12
797.4	26.03
797.6	25.12
797.8	26.35
798.0	27.03
798.2	27.71
798.4	27.01
798.6	26.82
798.8	26.55
799.0	28.02
799.2	27.07
799.4	25.04
799.6	21.45
799.8	20.90
800.0	23.28
800.2	26.24
800.4	26.92
800.6	27.16
800.8	26.35
801.0	25.84
801.2	25.74
801.4	26.33
801.6	25.47
801.8	24.83
802.0	24.42
802.2	24.24
802.4	24.26
802.6	25.12
802.8	26.01
803.0	27.25
803.2	28.22
803.4	28.48
803.6	26.76
803.8	24.68
804.0	24.28
804.2	23.23
804.4	24.90
804.6	25.91
804.8	25.16
805.0	24.42
805.2	24.38
805.4	22.17
805.6	22.41
805.8	22.13
806.0	22.89
806.2	23.75
806.4	25.04
806.6	26.61
806.8	27.64
807.0	26.91
807.2	25.34
807.4	24.97
807.6	23.29
807.8	24.11
808.0	24.73
808.2	22.96
808.4	21.50
808.6	21.21
808.8	21.18
809.0	23.02
809.2	24.15
809.4	24.27
809.6	25.08
809.8	23.89
810.0	24.38
810.2	24.22
810.4	23.36
810.6	23.19
810.8	23.10
811.0	22.35
811.2	21.94
811.4	21.61
811.6	20.71
811.8	21.60
812.0	22.88
812.2	22.72
812.4	22.46
812.6	21.92
812.8	21.90
813.0	22.54
813.2	23.69
813.4	22.52
813.6	20.67
813.8	19.70
814.0	20.24
814.2	21.15
814.4	21.84
814.6	20.72
814.8	19.10
815.0	20.14
815.2	20.82
815.4	22.23
815.6	22.68
815.8	20.21
816.0	19.15
816.2	18.53
816.4	17.28
816.6	18.22
816.8	19.84
817.0	20.51
817.2	22.07
817.4	22.71
817.6	21.23
817.8	20.37
818.0	20.28
818.2	20.38
818.4	19.68
818.6	19.99
818.8	19.31
819.0	19.42
819.2	21.34
819.4	21.36
819.6	20.56
819.8	19.75
820.0	19.61
820.2	18.18
820.4	18.94
820.6	19.56
820.8	20.88
821.0	21.42
821.2	21.86
821.4	19.82
821.6	19.96
821.8	20.98
822.0	22.30
822.2	21.63
822.4	21.22
822.6	18.33
822.8	17.43
823.0	16.97
823.2	17.06
823.4	18.82
823.6	19.71
823.8	19.38
824.0	19.64
824.2	19.54
824.4	18.73
824.6	19.34
824.8	18.44
825.0	17.62
825.2	17.74
825.4	20.76
825.6	21.80
825.8	21.62
826.0	19.65
826.2	16.88
826.4	15.74
826.6	18.08
826.8	18.58
827.0	17.93
827.2	17.94
827.4	18.02
827.6	16.65
827.8	15.86
828.0	14.18
828.2	12.50
828.4	12.91
828.6	14.60
828.8	15.62
829.0	16.35
829.2	15.46
829.4	15.00
829.6	14.02
829.8	15.08
830.0	15.57
830.2	15.37
830.4	14.07
830.6	13.30
830.8	12.63
831.0	13.98
831.2	15.34
831.4	15.69
831.6	15.53
831.8	14.45
832.0	13.55
832.2	13.35
832.4	13.24
832.6	13.60
832.8	14.82
833.0	14.35
833.2	13.62
833.4	11.53
833.6	11.11
833.8	12.16
834.0	13.89
834.2	14.64
834.4	14.79
834.6	13.33
834.8	13.68
835.0	12.69
835.2	13.35
835.4	13.86
835.6	13.53
835.8	13.19
836.0	12.36
836.2	11.38
836.4	12.71
836.6	12.49
836.8	12.43
837.0	12.92
837.2	12.27
837.4	13.18
837.6	13.45
837.8	13.25
838.0	13.04
838.2	12.00
838.4	11.03
838.6	12.22
838.8	12.40
839.0	12.58
839.2	12.45
839.4	11.17
839.6	10.90
839.8	12.37
840.0	13.01
840.2	12.49
840.4	11.89
840.6	9.975
840.8	10.22
841.0	12.12
841.2	12.90
841.4	12.75
841.6	11.76
841.8	10.60
842.0	11.22
842.2	12.64
842.4	12.89
842.6	12.25
842.8	12.11
843.0	12.23
843.2	12.61
843.4	12.07
843.6	11.75
843.8	11.45
844.0	11.24
844.2	10.60
844.4	10.12
844.6	10.06
844.8	11.44
845.0	12.13
845.2	11.15
845.4	10.12
845.6	9.083
845.8	9.187
846.0	10.01
846.2	10.32
846.4	10.18
846.6	10.65
846.8	10.17
847.0	9.671
847.2	8.916
847.4	9.205
847.6	9.324
847.8	9.357
848.0	10.07
848.2	10.53
848.4	9.651
848.6	9.762
848.8	9.127
849.0	8.317
849.2	9.757
849.4	10.77
849.6	11.03
849.8	10.90
850.0	10.39

