Sample:	'20211010A(EM)
File name:	g-ni-cds 1;5 700v.FDS
Run date:	'09:39:40, 03/22/2023
Operator:	Administrator
Comment:	'

Instrument
Model:	F-4700 FL Spectrophotometer
Serial number:	2019-001
ROM Version:	5J24010 00

Instrument parameters
Measurement type:	Wavelength scan
Scan mode:	Emission
Data mode:	Fluorescence
EX WL:	400.0 nm
EM  Start WL:	420.0 nm
EM  End WL:	850.0 nm
Scan speed:	1200 nm/min
Delay:	0.0 s
EX Slit:	10.0 nm
EM Slit:	10.0 nm
PMT Voltage:	700 V
Response:	0.002 s
Corrected spectra:	Off
Shutter control:	On

Processing performed
Savitsky-Golay smoothed
Smoothing order:	3
Number of points:	7
Number of times:	1

Peak integration
Integration method:	Rectangular
Sensitivity:	1
Threshold:	1.000

Peaks
No.	Start(nm)	Apex(nm)	End(nm)	Height(Data)	Valley(nm)	Valley(Data)
1	420.0	420.8	421.6	6.410	421.6	4.721
2	421.6	423.6	424.6	5.990	424.6	4.776
3	424.6	426.4	427.6	6.707	427.6	5.359
4	427.6	428.4	429.8	7.163	429.8	5.430
5	429.8	431.6	433.4	7.732	433.4	5.122
6	433.4	436.0	437.0	6.778	437.0	5.532
7	437.0	438.8	439.6	8.325	439.6	6.554
8	439.6	441.2	443.8	7.739	443.8	5.651
9	443.8	444.8	445.6	7.711	445.6	5.695
10	445.6	450.2	452.2	8.496	452.2	5.426
11	452.2	457.2	458.0	9.241	458.0	7.343
12	458.0	459.6	461.4	10.51	461.4	7.881
13	461.4	465.0	465.4	13.11	465.4	11.16
14	465.4	536.2	536.8	6239	536.8	6188
15	536.8	539.0	539.8	6293	539.8	6216
16	539.8	541.0	686.4	6266	686.4	204.8
17	686.4	687.4	693.8	211.7	693.8	169.7
18	693.8	694.6	697.0	174.2	697.0	159.9
19	697.0	697.6	702.2	166.1	702.2	144.9
20	702.2	703.2	710.0	150.2	710.0	119.8
21	710.0	710.4	714.4	124.2	714.4	110.7
22	714.4	714.0	717.6	112.7	717.6	101.2
23	717.6	718.6	725.4	104.5	725.4	78.59
24	725.4	726.0	732.6	86.63	732.6	63.26
25	732.6	733.2	734.6	68.67	734.6	61.45
26	734.6	735.4	741.8	67.04	741.8	50.29
27	741.8	743.2	744.8	52.59	744.8	47.58
28	744.8	746.2	747.2	49.64	747.2	42.84
29	747.2	747.8	748.8	49.13	748.8	40.79
30	748.8	749.4	750.8	45.53	750.8	39.08
31	750.8	752.8	754.6	41.94	754.6	36.58
32	754.6	756.0	757.6	38.72	757.6	30.18
33	757.6	758.4	763.6	37.83	763.6	27.42
34	763.6	764.8	767.0	31.33	767.0	26.86
35	767.0	767.8	771.0	28.93	771.0	23.89
36	771.0	771.6	772.6	27.60	772.6	23.14
37	772.6	774.2	776.6	26.03	776.6	20.35
38	776.6	778.2	779.0	22.37	779.0	20.53
39	779.0	780.2	781.4	22.94	781.4	19.19
40	781.4	783.6	785.0	22.09	785.0	19.42
41	785.0	786.6	789.2	22.54	789.2	17.58
42	789.2	790.8	791.6	20.62	791.6	19.19
43	791.6	792.4	793.8	20.83	793.8	17.81
44	793.8	794.4	798.6	20.76	798.6	17.40
45	798.6	799.2	801.4	20.47	801.4	16.26
46	801.4	802.4	803.4	21.76	803.4	17.49
47	803.4	804.4	806.6	18.69	806.6	16.47
48	806.6	807.4	807.8	18.55	807.8	16.50
49	807.8	809.4	810.2	18.48	810.2	15.78
50	810.2	811.2	813.4	17.90	813.4	14.36
51	813.4	814.2	815.6	16.18	815.6	12.77
52	815.6	816.4	817.0	16.86	817.0	13.88
53	817.0	818.4	819.8	18.17	819.8	11.99
54	819.8	821.2	822.2	15.60	822.2	12.69
55	822.2	823.6	826.0	15.22	826.0	12.36
56	826.0	827.2	828.0	15.17	828.0	10.99
57	828.0	829.0	830.0	13.32	830.0	10.64
58	830.0	831.4	832.2	12.88	832.2	9.356
59	832.2	833.8	835.6	10.93	835.6	7.425
60	835.6	836.4	841.8	11.20	841.8	7.377
61	841.8	842.8	844.2	8.904	844.2	6.704
62	844.2	844.6	850.0	8.436	850.0	5.950

Data points
nm	Data
420.0	6.309
420.2	5.066
420.4	5.147
420.6	5.893
420.8	6.410
421.0	6.198
421.2	5.875
421.4	5.413
421.6	4.721
421.8	5.372
422.0	5.336
422.2	5.370
422.4	5.661
422.6	5.583
422.8	5.730
423.0	5.677
423.2	5.959
423.4	5.901
423.6	5.990
423.8	5.826
424.0	5.567
424.2	5.240
424.4	5.294
424.6	4.776
424.8	4.856
425.0	4.925
425.2	5.554
425.4	5.803
425.6	5.904
425.8	5.745
426.0	6.389
426.2	6.413
426.4	6.707
426.6	6.479
426.8	6.616
427.0	6.376
427.2	6.109
427.4	5.447
427.6	5.359
427.8	5.860
428.0	6.903
428.2	7.125
428.4	7.163
428.6	5.966
428.8	5.334
429.0	5.579
429.2	5.767
429.4	5.897
429.6	5.916
429.8	5.430
430.0	5.519
430.2	6.025
430.4	5.466
430.6	5.749
430.8	5.484
431.0	5.826
431.2	7.173
431.4	7.730
431.6	7.732
431.8	7.414
432.0	7.153
432.2	6.429
432.4	7.365
432.6	7.114
432.8	6.979
433.0	6.303
433.2	5.786
433.4	5.122
433.6	5.571
433.8	5.619
434.0	5.726
434.2	6.179
434.4	6.321
434.6	6.245
434.8	6.328
435.0	5.808
435.2	6.129
435.4	6.340
435.6	6.655
435.8	6.540
436.0	6.778
436.2	6.374
436.4	6.594
436.6	6.625
436.8	6.065
437.0	5.532
437.2	5.918
437.4	5.665
437.6	6.193
437.8	6.961
438.0	6.569
438.2	7.248
438.4	7.843
438.6	8.245
438.8	8.325
439.0	8.192
439.2	7.337
439.4	6.991
439.6	6.554
439.8	6.908
440.0	6.680
440.2	6.671
440.4	6.875
440.6	7.100
440.8	7.171
441.0	7.357
441.2	7.739
441.4	7.701
441.6	7.212
441.8	7.292
442.0	7.538
442.2	7.584
442.4	7.537
442.6	7.433
442.8	6.812
443.0	6.951
443.2	7.023
443.4	6.551
443.6	6.238
443.8	5.651
444.0	5.728
444.2	6.351
444.4	6.722
444.6	7.083
444.8	7.711
445.0	7.407
445.2	6.351
445.4	6.060
445.6	5.695
445.8	5.705
446.0	6.589
446.2	7.411
446.4	7.597
446.6	7.603
446.8	7.114
447.0	6.515
447.2	6.469
447.4	7.072
447.6	7.889
447.8	7.510
448.0	7.241
448.2	6.491
448.4	6.532
448.6	7.087
448.8	7.331
449.0	7.547
449.2	7.450
449.4	7.042
449.6	7.726
449.8	7.988
450.0	8.122
450.2	8.496
450.4	8.197
450.6	8.282
450.8	8.477
451.0	7.525
451.2	6.823
451.4	6.181
451.6	6.237
451.8	6.387
452.0	6.236
452.2	5.426
452.4	5.775
452.6	5.955
452.8	6.983
453.0	7.324
453.2	7.058
453.4	7.173
453.6	7.698
453.8	7.390
454.0	8.121
454.2	8.099
454.4	7.855
454.6	7.902
454.8	7.881
455.0	7.461
455.2	7.258
455.4	7.215
455.6	7.556
455.8	7.745
456.0	8.646
456.2	8.462
456.4	8.334
456.6	8.670
456.8	8.086
457.0	8.530
457.2	9.241
457.4	8.931
457.6	8.679
457.8	8.622
458.0	7.343
458.2	7.518
458.4	7.842
458.6	7.929
458.8	8.238
459.0	9.286
459.2	9.807
459.4	10.15
459.6	10.51
459.8	10.23
460.0	9.557
460.2	9.348
460.4	9.632
460.6	9.285
460.8	9.021
461.0	8.717
461.2	8.189
461.4	7.881
461.6	8.621
461.8	9.089
462.0	9.730
462.2	9.940
462.4	10.01
462.6	9.671
462.8	10.52
463.0	11.16
463.2	11.25
463.4	10.36
463.6	10.54
463.8	11.21
464.0	12.07
464.2	12.56
464.4	12.47
464.6	12.43
464.8	12.92
465.0	13.11
465.2	11.56
465.4	11.16
465.6	12.20
465.8	13.85
466.0	14.59
466.2	14.70
466.4	13.70
466.6	13.84
466.8	14.02
467.0	14.68
467.2	14.98
467.4	16.23
467.6	17.79
467.8	19.05
468.0	18.65
468.2	17.91
468.4	17.15
468.6	17.20
468.8	17.73
469.0	18.51
469.2	19.01
469.4	20.08
469.6	21.42
469.8	22.36
470.0	22.93
470.2	22.51
470.4	21.22
470.6	21.26
470.8	21.47
471.0	22.48
471.2	23.45
471.4	24.48
471.6	25.35
471.8	27.39
472.0	28.55
472.2	29.64
472.4	29.13
472.6	29.88
472.8	30.95
473.0	33.94
473.2	35.14
473.4	37.13
473.6	36.01
473.8	37.21
474.0	37.17
474.2	40.84
474.4	43.69
474.6	46.24
474.8	45.87
475.0	47.12
475.2	46.57
475.4	47.44
475.6	47.97
475.8	51.04
476.0	53.70
476.2	57.12
476.4	58.04
476.6	59.42
476.8	61.51
477.0	68.18
477.2	70.93
477.4	72.49
477.6	70.15
477.8	70.94
478.0	73.01
478.2	77.55
478.4	79.66
478.6	83.17
478.8	85.40
479.0	85.84
479.2	89.17
479.4	92.95
479.6	95.00
479.8	96.04
480.0	99.79
480.2	100.4
480.4	105.3
480.6	112.9
480.8	118.1
481.0	121.7
481.2	125.3
481.4	127.1
481.6	128.4
481.8	130.3
482.0	133.4
482.2	139.5
482.4	142.3
482.6	148.0
482.8	152.5
483.0	155.0
483.2	160.8
483.4	167.9
483.6	172.7
483.8	177.1
484.0	183.2
484.2	188.5
484.4	198.6
484.6	209.0
484.8	214.3
485.0	218.6
485.2	228.6
485.4	234.6
485.6	242.8
485.8	253.3
486.0	259.2
486.2	262.7
486.4	275.7
486.6	278.8
486.8	282.3
487.0	292.4
487.2	297.9
487.4	302.6
487.6	318.3
487.8	330.3
488.0	341.9
488.2	353.4
488.4	366.6
488.6	380.5
488.8	391.1
489.0	399.5
489.2	410.8
489.4	415.3
489.6	427.8
489.8	440.1
490.0	450.3
490.2	460.8
490.4	479.6
490.6	496.4
490.8	511.8
491.0	523.9
491.2	537.5
491.4	553.6
491.6	576.3
491.8	594.6
492.0	600.5
492.2	609.5
492.4	619.7
492.6	634.7
492.8	660.5
493.0	682.0
493.2	699.0
493.4	715.6
493.6	724.8
493.8	743.8
494.0	768.1
494.2	794.9
494.4	815.9
494.6	831.9
494.8	845.2
495.0	879.4
495.2	900.9
495.4	920.6
495.6	936.3
495.8	950.2
496.0	969.6
496.2	998.9
496.4	1015
496.6	1038
496.8	1067
497.0	1095
497.2	1122
497.4	1149
497.6	1170
497.8	1186
498.0	1204
498.2	1225
498.4	1251
498.6	1279
498.8	1309
499.0	1340
499.2	1373
499.4	1403
499.6	1429
499.8	1453
500.0	1480
500.2	1512
500.4	1549
500.6	1588
500.8	1613
501.0	1641
501.2	1672
501.4	1696
501.6	1734
501.8	1765
502.0	1795
502.2	1827
502.4	1860
502.6	1889
502.8	1930
503.0	1956
503.2	1996
503.4	2029
503.6	2054
503.8	2083
504.0	2129
504.2	2167
504.4	2214
504.6	2245
504.8	2273
505.0	2298
505.2	2335
505.4	2369
505.6	2410
505.8	2440
506.0	2472
506.2	2514
506.4	2559
506.6	2600
506.8	2643
507.0	2674
507.2	2703
507.4	2733
507.6	2769
507.8	2801
508.0	2844
508.2	2891
508.4	2917
508.6	2941
508.8	2978
509.0	3012
509.2	3043
509.4	3095
509.6	3133
509.8	3175
510.0	3214
510.2	3260
510.4	3308
510.6	3351
510.8	3389
511.0	3418
511.2	3444
511.4	3489
511.6	3533
511.8	3561
512.0	3588
512.2	3624
512.4	3648
512.6	3677
512.8	3707
513.0	3747
513.2	3798
513.4	3845
513.6	3888
513.8	3925
514.0	3959
514.2	3984
514.4	4020
514.6	4046
514.8	4083
515.0	4126
515.2	4158
515.4	4193
515.6	4239
515.8	4263
516.0	4302
516.2	4341
516.4	4380
516.6	4415
516.8	4447
517.0	4469
517.2	4493
517.4	4519
517.6	4562
517.8	4604
518.0	4631
518.2	4675
518.4	4682
518.6	4700
518.8	4746
519.0	4789
519.2	4823
519.4	4872
519.6	4882
519.8	4890
520.0	4909
520.2	4925
520.4	4957
520.6	5025
520.8	5056
521.0	5102
521.2	5133
521.4	5158
521.6	5190
521.8	5214
522.0	5219
522.2	5257
522.4	5287
522.6	5313
522.8	5347
523.0	5360
523.2	5374
523.4	5412
523.6	5423
523.8	5427
524.0	5441
524.2	5441
524.4	5453
524.6	5492
524.8	5526
525.0	5559
525.2	5616
525.4	5634
525.6	5640
525.8	5628
526.0	5625
526.2	5647
526.4	5692
526.6	5732
526.8	5767
527.0	5771
527.2	5783
527.4	5815
527.6	5828
527.8	5835
528.0	5838
528.2	5826
528.4	5835
528.6	5872
528.8	5894
529.0	5908
529.2	5925
529.4	5944
529.6	5948
529.8	5980
530.0	5993
530.2	6012
530.4	6025
530.6	6034
530.8	6023
531.0	6035
531.2	6032
531.4	6019
531.6	6021
531.8	6040
532.0	6057
532.2	6095
532.4	6105
532.6	6092
532.8	6095
533.0	6097
533.2	6087
533.4	6092
533.6	6121
533.8	6134
534.0	6181
534.2	6201
534.4	6195
534.6	6186
534.8	6197
535.0	6186
535.2	6226
535.4	6226
535.6	6222
535.8	6227
536.0	6233
536.2	6239
536.4	6230
536.6	6200
536.8	6188
537.0	6190
537.2	6204
537.4	6246
537.6	6251
537.8	6242
538.0	6241
538.2	6239
538.4	6242
538.6	6264
538.8	6291
539.0	6293
539.2	6282
539.4	6255
539.6	6231
539.8	6216
540.0	6220
540.2	6230
540.4	6235
540.6	6232
540.8	6250
541.0	6266
541.2	6265
541.4	6246
541.6	6212
541.8	6197
542.0	6196
542.2	6212
542.4	6222
542.6	6196
542.8	6181
543.0	6186
543.2	6191
543.4	6203
543.6	6190
543.8	6165
544.0	6149
544.2	6135
544.4	6143
544.6	6135
544.8	6129
545.0	6139
545.2	6145
545.4	6151
545.6	6147
545.8	6128
546.0	6122
546.2	6119
546.4	6130
546.6	6114
546.8	6084
547.0	6067
547.2	6041
547.4	6022
547.6	6039
547.8	6051
548.0	6033
548.2	6037
548.4	6003
548.6	5992
548.8	5996
549.0	5988
549.2	5947
549.4	5937
549.6	5924
549.8	5937
550.0	5955
550.2	5956
550.4	5948
550.6	5934
550.8	5912
551.0	5896
551.2	5895
551.4	5891
551.6	5887
551.8	5881
552.0	5855
552.2	5849
552.4	5846
552.6	5828
552.8	5818
553.0	5785
553.2	5744
553.4	5712
553.6	5691
553.8	5690
554.0	5693
554.2	5685
554.4	5682
554.6	5657
554.8	5659
555.0	5651
555.2	5619
555.4	5605
555.6	5597
555.8	5579
556.0	5597
556.2	5606
556.4	5581
556.6	5564
556.8	5530
557.0	5508
557.2	5511
557.4	5540
557.6	5531
557.8	5527
558.0	5495
558.2	5458
558.4	5413
558.6	5386
558.8	5381
559.0	5393
559.2	5398
559.4	5400
559.6	5389
559.8	5373
560.0	5350
560.2	5343
560.4	5316
560.6	5307
560.8	5305
561.0	5288
561.2	5259
561.4	5252
561.6	5232
561.8	5200
562.0	5178
562.2	5171
562.4	5173
562.6	5161
562.8	5138
563.0	5106
563.2	5096
563.4	5103
563.6	5095
563.8	5084
564.0	5042
564.2	5013
564.4	5010
564.6	5011
564.8	4999
565.0	5006
565.2	4982
565.4	4965
565.6	4960
565.8	4953
566.0	4923
566.2	4899
566.4	4893
566.6	4887
566.8	4873
567.0	4867
567.2	4840
567.4	4819
567.6	4818
567.8	4790
568.0	4759
568.2	4734
568.4	4736
568.6	4746
568.8	4738
569.0	4708
569.2	4688
569.4	4641
569.6	4621
569.8	4607
570.0	4606
570.2	4620
570.4	4633
570.6	4610
570.8	4592
571.0	4565
571.2	4539
571.4	4530
571.6	4497
571.8	4481
572.0	4470
572.2	4448
572.4	4416
572.6	4409
572.8	4370
573.0	4370
573.2	4368
573.4	4348
573.6	4352
573.8	4341
574.0	4299
574.2	4270
574.4	4254
574.6	4244
574.8	4260
575.0	4255
575.2	4237
575.4	4208
575.6	4188
575.8	4174
576.0	4179
576.2	4171
576.4	4170
576.6	4163
576.8	4140
577.0	4101
577.2	4081
577.4	4064
577.6	4057
577.8	4056
578.0	4042
578.2	4022
578.4	4000
578.6	3976
578.8	3949
579.0	3915
579.2	3887
579.4	3903
579.6	3898
579.8	3896
580.0	3893
580.2	3863
580.4	3825
580.6	3823
580.8	3795
581.0	3785
581.2	3790
581.4	3781
581.6	3768
581.8	3756
582.0	3718
582.2	3712
582.4	3703
582.6	3686
582.8	3670
583.0	3648
583.2	3623
583.4	3617
583.6	3602
583.8	3595
584.0	3589
584.2	3582
584.4	3572
584.6	3539
584.8	3517
585.0	3490
585.2	3474
585.4	3460
585.6	3465
585.8	3456
586.0	3454
586.2	3430
586.4	3397
586.6	3374
586.8	3375
587.0	3364
587.2	3370
587.4	3360
587.6	3314
587.8	3283
588.0	3267
588.2	3260
588.4	3279
588.6	3280
588.8	3258
589.0	3239
589.2	3211
589.4	3194
589.6	3183
589.8	3161
590.0	3143
590.2	3116
590.4	3096
590.6	3088
590.8	3097
591.0	3101
591.2	3099
591.4	3082
591.6	3053
591.8	3032
592.0	3031
592.2	3017
592.4	3013
592.6	2999
592.8	2968
593.0	2946
593.2	2953
593.4	2936
593.6	2927
593.8	2897
594.0	2880
594.2	2860
594.4	2863
594.6	2846
594.8	2834
595.0	2803
595.2	2807
595.4	2817
595.6	2821
595.8	2803
596.0	2782
596.2	2740
596.4	2730
596.6	2726
596.8	2720
597.0	2712
597.2	2706
597.4	2686
597.6	2676
597.8	2651
598.0	2627
598.2	2619
598.4	2617
598.6	2616
598.8	2615
599.0	2613
599.2	2596
599.4	2581
599.6	2554
599.8	2544
600.0	2529
600.2	2517
600.4	2497
600.6	2489
600.8	2483
601.0	2486
601.2	2466
601.4	2450
601.6	2428
601.8	2428
602.0	2418
602.2	2398
602.4	2374
602.6	2372
602.8	2362
603.0	2366
603.2	2350
603.4	2340
603.6	2321
603.8	2312
604.0	2307
604.2	2291
604.4	2288
604.6	2281
604.8	2263
605.0	2254
605.2	2231
605.4	2207
605.6	2199
605.8	2187
606.0	2173
606.2	2162
606.4	2140
606.6	2148
606.8	2147
607.0	2142
607.2	2139
607.4	2125
607.6	2115
607.8	2113
608.0	2111
608.2	2084
608.4	2076
608.6	2057
608.8	2037
609.0	2021
609.2	2011
609.4	1989
609.6	1990
609.8	1992
610.0	1980
610.2	1963
610.4	1942
610.6	1931
610.8	1941
611.0	1949
611.2	1945
611.4	1932
611.6	1905
611.8	1875
612.0	1878
612.2	1871
612.4	1871
612.6	1873
612.8	1857
613.0	1834
613.2	1827
613.4	1814
613.6	1806
613.8	1803
614.0	1792
614.2	1773
614.4	1769
614.6	1765
614.8	1758
615.0	1749
615.2	1737
615.4	1720
615.6	1725
615.8	1716
616.0	1709
616.2	1702
616.4	1698
616.6	1686
616.8	1672
617.0	1656
617.2	1646
617.4	1629
617.6	1621
617.8	1613
618.0	1602
618.2	1596
618.4	1594
618.6	1586
618.8	1576
619.0	1567
619.2	1565
619.4	1551
619.6	1541
619.8	1540
620.0	1536
620.2	1533
620.4	1529
620.6	1504
620.8	1487
621.0	1486
621.2	1488
621.4	1487
621.6	1474
621.8	1461
622.0	1438
622.2	1434
622.4	1420
622.6	1413
622.8	1406
623.0	1406
623.2	1381
623.4	1367
623.6	1351
623.8	1357
624.0	1371
624.2	1379
624.4	1364
624.6	1342
624.8	1319
625.0	1317
625.2	1313
625.4	1309
625.6	1300
625.8	1295
626.0	1285
626.2	1281
626.4	1268
626.6	1256
626.8	1250
627.0	1249
627.2	1244
627.4	1238
627.6	1226
627.8	1209
628.0	1204
628.2	1208
628.4	1205
628.6	1197
628.8	1185
629.0	1167
629.2	1160
629.4	1166
629.6	1157
629.8	1146
630.0	1145
630.2	1134
630.4	1130
630.6	1132
630.8	1123
631.0	1111
631.2	1111
631.4	1107
631.6	1107
631.8	1100
632.0	1089
632.2	1083
632.4	1084
632.6	1082
632.8	1073
633.0	1059
633.2	1042
633.4	1033
633.6	1032
633.8	1026
634.0	1028
634.2	1019
634.4	1003
634.6	990.3
634.8	984.2
635.0	984.8
635.2	989.7
635.4	981.4
635.6	971.4
635.8	955.9
636.0	946.7
636.2	944.8
636.4	947.8
636.6	953.3
636.8	955.0
637.0	949.4
637.2	948.1
637.4	931.5
637.6	921.8
637.8	919.5
638.0	913.8
638.2	909.4
638.4	908.4
638.6	889.5
638.8	882.2
639.0	886.1
639.2	891.9
639.4	882.3
639.6	874.4
639.8	865.0
640.0	861.2
640.2	864.5
640.4	862.4
640.6	852.6
640.8	837.4
641.0	826.9
641.2	822.2
641.4	815.0
641.6	806.0
641.8	809.7
642.0	806.6
642.2	800.0
642.4	796.5
642.6	789.0
642.8	788.1
643.0	785.9
643.2	782.2
643.4	774.0
643.6	767.6
643.8	761.0
644.0	755.6
644.2	748.5
644.4	742.6
644.6	740.9
644.8	734.9
645.0	723.8
645.2	718.1
645.4	721.9
645.6	721.0
645.8	722.5
646.0	711.3
646.2	699.6
646.4	693.4
646.6	694.8
646.8	692.5
647.0	693.3
647.2	685.7
647.4	690.6
647.6	691.2
647.8	691.8
648.0	684.4
648.2	669.5
648.4	654.4
648.6	658.2
648.8	655.5
649.0	653.8
649.2	648.6
649.4	639.9
649.6	635.8
649.8	637.5
650.0	635.1
650.2	632.0
650.4	627.8
650.6	621.5
650.8	615.1
651.0	607.8
651.2	609.3
651.4	611.5
651.6	611.2
651.8	602.1
652.0	591.9
652.2	584.3
652.4	579.1
652.6	577.3
652.8	581.1
653.0	583.6
653.2	583.1
653.4	579.7
653.6	573.0
653.8	565.3
654.0	562.1
654.2	558.2
654.4	556.8
654.6	552.9
654.8	554.1
655.0	556.3
655.2	554.0
655.4	546.7
655.6	544.9
655.8	539.2
656.0	532.3
656.2	528.1
656.4	525.3
656.6	524.9
656.8	526.3
657.0	526.5
657.2	515.9
657.4	509.6
657.6	509.1
657.8	507.6
658.0	505.6
658.2	501.5
658.4	488.4
658.6	486.9
658.8	487.0
659.0	487.5
659.2	486.7
659.4	479.2
659.6	473.4
659.8	474.8
660.0	477.8
660.2	476.1
660.4	470.0
660.6	462.7
660.8	456.8
661.0	454.2
661.2	459.0
661.4	453.4
661.6	448.6
661.8	445.3
662.0	439.8
662.2	432.2
662.4	434.9
662.6	431.6
662.8	432.5
663.0	432.9
663.2	428.0
663.4	422.4
663.6	421.7
663.8	418.6
664.0	418.5
664.2	423.1
664.4	420.0
664.6	415.6
664.8	408.1
665.0	398.5
665.2	392.4
665.4	393.4
665.6	396.6
665.8	398.9
666.0	394.2
666.2	388.9
666.4	383.2
666.6	379.0
666.8	381.0
667.0	383.4
667.2	381.0
667.4	382.0
667.6	378.3
667.8	373.2
668.0	370.6
668.2	363.5
668.4	363.9
668.6	365.0
668.8	365.3
669.0	367.4
669.2	369.1
669.4	365.3
669.6	362.3
669.8	355.9
670.0	352.0
670.2	350.8
670.4	350.6
670.6	350.8
670.8	351.5
671.0	347.6
671.2	344.4
671.4	340.1
671.6	335.0
671.8	332.1
672.0	329.0
672.2	326.9
672.4	327.1
672.6	327.9
672.8	325.0
673.0	322.3
673.2	315.1
673.4	314.0
673.6	312.7
673.8	309.7
674.0	305.8
674.2	304.5
674.4	301.2
674.6	302.2
674.8	298.6
675.0	293.6
675.2	292.1
675.4	296.0
675.6	298.4
675.8	300.8
676.0	296.4
676.2	292.5
676.4	291.0
676.6	290.6
676.8	290.1
677.0	288.7
677.2	284.5
677.4	279.6
677.6	275.2
677.8	271.3
678.0	272.7
678.2	274.6
678.4	274.6
678.6	273.9
678.8	269.8
679.0	266.9
679.2	266.4
679.4	262.3
679.6	262.8
679.8	263.9
680.0	256.7
680.2	253.6
680.4	253.8
680.6	247.2
680.8	249.7
681.0	249.6
681.2	246.9
681.4	244.8
681.6	245.4
681.8	241.1
682.0	244.3
682.2	241.3
682.4	243.2
682.6	240.9
682.8	237.5
683.0	235.7
683.2	235.0
683.4	231.6
683.6	232.2
683.8	235.3
684.0	229.6
684.2	224.7
684.4	221.0
684.6	223.0
684.8	224.9
685.0	228.6
685.2	224.8
685.4	220.6
685.6	220.3
685.8	219.6
686.0	214.4
686.2	211.5
686.4	204.8
686.6	207.5
686.8	210.3
687.0	208.9
687.2	211.0
687.4	211.7
687.6	207.7
687.8	210.3
688.0	203.3
688.2	199.4
688.4	199.4
688.6	198.1
688.8	196.0
689.0	198.0
689.2	195.8
689.4	197.6
689.6	198.0
689.8	195.6
690.0	193.7
690.2	194.3
690.4	191.7
690.6	188.3
690.8	186.3
691.0	181.0
691.2	182.9
691.4	188.3
691.6	187.9
691.8	187.1
692.0	186.4
692.2	177.4
692.4	172.2
692.6	173.1
692.8	175.2
693.0	176.9
693.2	179.0
693.4	174.0
693.6	170.8
693.8	169.7
694.0	173.0
694.2	172.3
694.4	173.2
694.6	174.2
694.8	173.0
695.0	172.4
695.2	171.3
695.4	171.7
695.6	170.9
695.8	170.4
696.0	170.2
696.2	169.1
696.4	164.6
696.6	162.9
696.8	160.3
697.0	159.9
697.2	163.4
697.4	165.2
697.6	166.1
697.8	164.6
698.0	163.6
698.2	162.5
698.4	161.8
698.6	159.1
698.8	156.6
699.0	153.6
699.2	154.5
699.4	153.6
699.6	154.1
699.8	153.7
700.0	151.1
700.2	151.4
700.4	151.0
700.6	148.8
700.8	146.2
701.0	145.5
701.2	144.9
701.4	146.6
701.6	146.0
701.8	146.2
702.0	145.1
702.2	144.9
702.4	145.7
702.6	146.8
702.8	147.9
703.0	148.7
703.2	150.2
703.4	149.0
703.6	146.9
703.8	142.9
704.0	139.2
704.2	136.2
704.4	135.7
704.6	134.9
704.8	137.2
705.0	137.0
705.2	136.9
705.4	133.0
705.6	131.7
705.8	131.6
706.0	131.9
706.2	133.7
706.4	133.1
706.6	130.2
706.8	130.6
707.0	129.3
707.2	127.3
707.4	129.7
707.6	129.6
707.8	130.1
708.0	129.4
708.2	128.6
708.4	128.1
708.6	129.2
708.8	129.5
709.0	129.6
709.2	127.0
709.4	125.1
709.6	122.6
709.8	120.7
710.0	119.8
710.2	122.7
710.4	124.2
710.6	124.1
710.8	124.0
711.0	121.4
711.2	120.3
711.4	119.9
711.6	120.1
711.8	118.1
712.0	117.0
712.2	116.0
712.4	118.5
712.6	117.8
712.8	121.5
713.0	118.3
713.2	114.3
713.4	111.0
713.6	111.4
713.8	110.7
714.0	112.7
714.2	112.1
714.4	110.7
714.6	111.9
714.8	112.2
715.0	111.7
715.2	108.9
715.4	109.6
715.6	108.5
715.8	110.2
716.0	108.1
716.2	106.0
716.4	103.0
716.6	104.3
716.8	104.6
717.0	103.9
717.2	103.9
717.4	103.3
717.6	101.2
717.8	101.5
718.0	102.6
718.2	102.8
718.4	104.4
718.6	104.5
718.8	103.0
719.0	103.9
719.2	102.4
719.4	100.2
719.6	97.57
719.8	95.00
720.0	93.36
720.2	93.26
720.4	93.22
720.6	95.27
720.8	97.27
721.0	98.22
721.2	96.33
721.4	92.13
721.6	90.25
721.8	89.75
722.0	91.46
722.2	90.20
722.4	89.51
722.6	87.49
722.8	87.20
723.0	88.64
723.2	89.87
723.4	87.57
723.6	87.86
723.8	85.94
724.0	84.65
724.2	84.92
724.4	85.34
724.6	85.68
724.8	87.59
725.0	84.42
725.2	80.41
725.4	78.59
725.6	80.19
725.8	83.63
726.0	86.63
726.2	85.72
726.4	85.16
726.6	81.15
726.8	81.25
727.0	81.23
727.2	81.18
727.4	81.35
727.6	81.45
727.8	79.00
728.0	79.22
728.2	77.61
728.4	77.94
728.6	75.25
728.8	73.55
729.0	75.45
729.2	75.34
729.4	75.45
729.6	75.44
729.8	73.58
730.0	72.98
730.2	72.92
730.4	73.13
730.6	72.73
730.8	70.35
731.0	70.21
731.2	68.63
731.4	68.23
731.6	69.15
731.8	68.90
732.0	67.87
732.2	66.14
732.4	64.53
732.6	63.26
732.8	64.87
733.0	66.68
733.2	68.67
733.4	66.65
733.6	65.44
733.8	61.99
734.0	62.82
734.2	62.28
734.4	62.47
734.6	61.45
734.8	62.50
735.0	63.31
735.2	66.00
735.4	67.04
735.6	66.73
735.8	65.85
736.0	63.63
736.2	60.94
736.4	60.21
736.6	59.67
736.8	59.76
737.0	59.18
737.2	59.47
737.4	59.81
737.6	58.85
737.8	57.78
738.0	58.46
738.2	56.49
738.4	56.42
738.6	56.66
738.8	56.17
739.0	56.79
739.2	57.66
739.4	58.61
739.6	56.84
739.8	56.18
740.0	54.04
740.2	53.19
740.4	51.47
740.6	53.10
740.8	52.63
741.0	53.66
741.2	52.69
741.4	51.14
741.6	51.49
741.8	50.29
742.0	51.04
742.2	50.50
742.4	50.79
742.6	50.73
742.8	51.46
743.0	51.34
743.2	52.59
743.4	52.17
743.6	51.77
743.8	51.19
744.0	49.13
744.2	48.61
744.4	48.24
744.6	48.78
744.8	47.58
745.0	47.80
745.2	48.25
745.4	48.91
745.6	49.01
745.8	49.25
746.0	48.41
746.2	49.64
746.4	48.98
746.6	48.17
746.8	46.18
747.0	43.48
747.2	42.84
747.4	44.47
747.6	46.45
747.8	49.13
748.0	49.07
748.2	46.99
748.4	44.26
748.6	41.65
748.8	40.79
749.0	41.56
749.2	43.06
749.4	45.53
749.6	44.51
749.8	44.87
750.0	42.86
750.2	40.56
750.4	39.90
750.6	40.58
750.8	39.08
751.0	40.47
751.2	41.56
751.4	40.52
751.6	40.41
751.8	41.03
752.0	39.88
752.2	40.40
752.4	40.88
752.6	40.91
752.8	41.94
753.0	41.34
753.2	40.24
753.4	38.89
753.6	38.75
753.8	39.54
754.0	39.54
754.2	39.04
754.4	37.99
754.6	36.58
754.8	37.82
755.0	37.63
755.2	38.37
755.4	37.66
755.6	38.26
755.8	38.45
756.0	38.72
756.2	37.62
756.4	36.49
756.6	34.64
756.8	34.94
757.0	34.65
757.2	33.75
757.4	32.05
757.6	30.18
757.8	32.05
758.0	35.16
758.2	36.94
758.4	37.83
758.6	37.78
758.8	35.27
759.0	34.75
759.2	34.98
759.4	34.07
759.6	33.26
759.8	33.52
760.0	32.97
760.2	33.65
760.4	34.66
760.6	34.63
760.8	33.04
761.0	31.95
761.2	31.23
761.4	29.45
761.6	30.43
761.8	30.95
762.0	30.28
762.2	30.33
762.4	30.04
762.6	28.99
762.8	29.66
763.0	29.51
763.2	28.05
763.4	27.57
763.6	27.42
763.8	28.00
764.0	28.44
764.2	28.74
764.4	30.08
764.6	31.26
764.8	31.33
765.0	30.82
765.2	29.50
765.4	28.79
765.6	27.85
765.8	28.65
766.0	28.09
766.2	28.61
766.4	29.13
766.6	29.04
766.8	27.03
767.0	26.86
767.2	26.87
767.4	27.38
767.6	28.86
767.8	28.93
768.0	28.07
768.2	27.70
768.4	27.45
768.6	27.75
768.8	28.52
769.0	27.90
769.2	27.57
769.4	26.44
769.6	24.76
769.8	24.31
770.0	25.09
770.2	25.79
770.4	27.11
770.6	25.90
770.8	24.77
771.0	23.89
771.2	24.88
771.4	26.43
771.6	27.60
771.8	26.87
772.0	25.57
772.2	24.29
772.4	23.52
772.6	23.14
772.8	23.89
773.0	24.15
773.2	23.70
773.4	23.82
773.6	24.89
773.8	24.59
774.0	25.00
774.2	26.03
774.4	24.55
774.6	24.56
774.8	24.27
775.0	23.43
775.2	23.16
775.4	23.03
775.6	23.12
775.8	23.62
776.0	23.12
776.2	21.76
776.4	21.06
776.6	20.35
776.8	21.33
777.0	21.43
777.2	21.48
777.4	20.42
777.6	20.55
777.8	20.42
778.0	21.83
778.2	22.37
778.4	21.72
778.6	21.57
778.8	20.90
779.0	20.53
779.2	21.12
779.4	20.95
779.6	20.60
779.8	21.55
780.0	22.37
780.2	22.94
780.4	22.35
780.6	22.55
780.8	21.67
781.0	20.71
781.2	20.22
781.4	19.19
781.6	19.51
781.8	20.07
782.0	19.38
782.2	19.34
782.4	19.55
782.6	19.82
782.8	20.19
783.0	20.84
783.2	20.79
783.4	21.74
783.6	22.09
783.8	21.04
784.0	20.45
784.2	20.45
784.4	19.92
784.6	20.34
784.8	19.67
785.0	19.42
785.2	20.20
785.4	20.95
785.6	20.74
785.8	20.41
786.0	19.42
786.2	20.65
786.4	21.69
786.6	22.54
786.8	21.57
787.0	19.98
787.2	19.12
787.4	19.95
787.6	20.10
787.8	19.60
788.0	18.23
788.2	17.91
788.4	17.93
788.6	18.23
788.8	18.39
789.0	18.07
789.2	17.58
789.4	18.40
789.6	18.97
789.8	18.92
790.0	20.10
790.2	20.02
790.4	19.99
790.6	20.00
790.8	20.62
791.0	19.88
791.2	19.98
791.4	19.50
791.6	19.19
791.8	19.42
792.0	20.69
792.2	20.39
792.4	20.83
792.6	20.51
792.8	19.89
793.0	19.75
793.2	19.28
793.4	17.88
793.6	18.74
793.8	17.81
794.0	18.58
794.2	20.96
794.4	20.76
794.6	20.35
794.8	20.04
795.0	18.89
795.2	19.40
795.4	20.69
795.6	20.63
795.8	20.60
796.0	18.64
796.2	17.82
796.4	18.75
796.6	18.27
796.8	18.47
797.0	18.88
797.2	18.70
797.4	18.37
797.6	18.63
797.8	17.85
798.0	17.79
798.2	17.72
798.4	18.13
798.6	17.40
798.8	17.80
799.0	19.16
799.2	20.47
799.4	20.18
799.6	19.59
799.8	18.78
800.0	17.99
800.2	17.51
800.4	18.82
800.6	19.22
800.8	19.73
801.0	19.66
801.2	17.82
801.4	16.26
801.6	16.98
801.8	18.52
802.0	20.04
802.2	21.34
802.4	21.76
802.6	21.38
802.8	20.03
803.0	18.88
803.2	17.87
803.4	17.49
803.6	17.50
803.8	18.02
804.0	18.52
804.2	18.61
804.4	18.69
804.6	18.50
804.8	18.65
805.0	18.01
805.2	18.24
805.4	17.46
805.6	16.94
805.8	17.70
806.0	17.43
806.2	17.42
806.4	17.63
806.6	16.47
806.8	17.00
807.0	18.38
807.2	18.13
807.4	18.55
807.6	17.80
807.8	16.50
808.0	16.70
808.2	16.72
808.4	17.00
808.6	17.26
808.8	17.35
809.0	17.55
809.2	17.94
809.4	18.48
809.6	17.51
809.8	17.05
810.0	16.87
810.2	15.78
810.4	15.97
810.6	17.53
810.8	17.39
811.0	17.82
811.2	17.90
811.4	17.30
811.6	17.53
811.8	17.61
812.0	17.34
812.2	16.32
812.4	15.91
812.6	16.71
812.8	18.01
813.0	17.86
813.2	16.35
813.4	14.36
813.6	14.51
813.8	15.07
814.0	15.84
814.2	16.18
814.4	15.05
814.6	14.41
814.8	15.66
815.0	15.52
815.2	14.97
815.4	14.15
815.6	12.77
815.8	13.17
816.0	14.99
816.2	16.30
816.4	16.86
816.6	16.06
816.8	14.53
817.0	13.88
817.2	14.19
817.4	14.06
817.6	15.30
817.8	16.96
818.0	17.55
818.2	17.68
818.4	18.17
818.6	17.97
818.8	17.90
819.0	16.83
819.2	14.62
819.4	13.11
819.6	12.07
819.8	11.99
820.0	12.07
820.2	12.11
820.4	13.17
820.6	14.67
820.8	15.48
821.0	15.50
821.2	15.60
821.4	14.74
821.6	13.83
821.8	12.87
822.0	13.04
822.2	12.69
822.4	13.60
822.6	13.83
822.8	13.71
823.0	13.67
823.2	14.71
823.4	14.83
823.6	15.22
823.8	14.15
824.0	12.96
824.2	12.34
824.4	12.76
824.6	12.90
824.8	12.83
825.0	12.49
825.2	12.82
825.4	12.82
825.6	13.08
825.8	12.38
826.0	12.36
826.2	12.60
826.4	13.10
826.6	13.39
826.8	13.63
827.0	14.11
827.2	15.17
827.4	14.66
827.6	12.69
827.8	12.05
828.0	10.99
828.2	11.81
828.4	12.31
828.6	12.82
828.8	12.53
829.0	13.32
829.2	12.51
829.4	12.60
829.6	11.48
829.8	10.93
830.0	10.64
830.2	10.98
830.4	10.95
830.6	11.74
830.8	11.93
831.0	12.13
831.2	12.69
831.4	12.88
831.6	12.48
831.8	11.28
832.0	10.57
832.2	9.356
832.4	9.513
832.6	10.25
832.8	9.826
833.0	10.05
833.2	10.55
833.4	10.05
833.6	10.92
833.8	10.93
834.0	9.582
834.2	9.964
834.4	9.748
834.6	10.05
834.8	10.05
835.0	9.526
835.2	8.571
835.4	8.027
835.6	7.425
835.8	7.447
836.0	8.003
836.2	9.724
836.4	11.20
836.6	11.10
836.8	10.04
837.0	9.117
837.2	9.653
837.4	9.545
837.6	10.04
837.8	9.298
838.0	8.565
838.2	9.039
838.4	9.495
838.6	9.118
838.8	9.502
839.0	8.761
839.2	8.294
839.4	8.012
839.6	7.547
839.8	7.440
840.0	8.192
840.2	8.395
840.4	8.208
840.6	7.835
840.8	8.001
841.0	7.690
841.2	7.986
841.4	7.676
841.6	7.398
841.8	7.377
842.0	8.376
842.2	8.348
842.4	8.683
842.6	8.767
842.8	8.904
843.0	8.039
843.2	7.779
843.4	7.440
843.6	6.937
843.8	7.052
844.0	7.133
844.2	6.704
844.4	7.716
844.6	8.436
844.8	8.082
845.0	8.142
845.2	7.553
845.4	7.161
845.6	7.467
845.8	7.161
846.0	6.986
846.2	7.272
846.4	6.980
846.6	6.932
846.8	6.506
847.0	6.338
847.2	5.881
847.4	6.434
847.6	6.718
847.8	7.252
848.0	7.078
848.2	6.978
848.4	6.954
848.6	7.229
848.8	7.548
849.0	7.624
849.2	7.464
849.4	7.404
849.6	7.533
849.8	7.179
850.0	5.950

