Sample:	'20211010A(EM)
File name:	g-ni-cds 1;5 735v.FDS
Run date:	'09:43:17, 03/22/2023
Operator:	Administrator
Comment:	'

Instrument
Model:	F-4700 FL Spectrophotometer
Serial number:	2019-001
ROM Version:	5J24010 00

Instrument parameters
Measurement type:	Wavelength scan
Scan mode:	Emission
Data mode:	Fluorescence
EX WL:	400.0 nm
EM  Start WL:	420.0 nm
EM  End WL:	850.0 nm
Scan speed:	1200 nm/min
Delay:	0.0 s
EX Slit:	10.0 nm
EM Slit:	10.0 nm
PMT Voltage:	735 V
Response:	0.002 s
Corrected spectra:	Off
Shutter control:	On

Processing performed
Savitsky-Golay smoothed
Smoothing order:	3
Number of points:	7
Number of times:	1

Peak integration
Integration method:	Rectangular
Sensitivity:	1
Threshold:	1.000

Peaks
No.	Start(nm)	Apex(nm)	End(nm)	Height(Data)	Valley(nm)	Valley(Data)
1	420.0	421.6	422.6	10.82	422.6	8.125
2	422.6	423.6	425.6	10.88	425.6	7.210
3	425.6	427.0	428.6	9.959	428.6	7.289
4	428.6	430.0	431.4	11.36	431.4	7.459
5	431.4	432.4	433.2	9.902	433.2	7.990
6	433.2	434.8	435.8	10.25	435.8	8.074
7	435.8	436.4	438.2	9.936	438.2	8.478
8	438.2	439.0	440.6	10.29	440.6	8.166
9	440.6	441.6	443.6	11.02	443.6	8.630
10	443.6	444.6	447.0	11.48	447.0	8.876
11	447.0	447.6	448.6	11.23	448.6	8.091
12	448.6	450.2	451.8	12.07	451.8	8.309
13	451.8	452.6	453.4	11.52	453.4	9.567
14	453.4	455.6	457.8	13.07	457.8	10.32
15	457.8	463.4	464.2	16.88	464.2	14.62
16	464.2	536.4	537.2	8920	537.2	8845
17	537.2	537.8	539.6	8963	539.6	8867
18	539.6	540.6	543.4	8948	543.4	8776
19	543.4	544.0	693.2	8855	693.2	242.5
20	693.2	694.0	705.4	259.7	705.4	183.3
21	705.4	706.0	715.2	195.6	715.2	142.4
22	715.2	716.8	721.4	152.7	721.4	126.0
23	721.4	722.2	736.6	132.4	736.6	80.29
24	736.6	737.6	740.8	86.41	740.8	72.66
25	740.8	742.4	748.2	76.77	748.2	58.04
26	748.2	749.2	752.8	67.15	752.8	53.02
27	752.8	754.2	754.8	55.86	754.8	52.81
28	754.8	755.8	760.4	55.23	760.4	42.23
29	760.4	762.4	766.2	48.79	766.2	38.90
30	766.2	767.0	770.4	44.51	770.4	33.35
31	770.4	771.8	772.4	36.01	772.4	31.53
32	772.4	773.4	775.8	36.20	775.8	30.07
33	775.8	776.4	778.2	33.75	778.2	26.07
34	778.2	779.0	780.8	32.44	780.8	27.85
35	780.8	781.6	784.4	31.05	784.4	25.34
36	784.4	785.6	787.6	30.47	787.6	24.80
37	787.6	788.6	790.6	31.25	790.6	25.08
38	790.6	792.2	792.8	30.43	792.8	25.81
39	792.8	793.6	795.8	31.69	795.8	23.53
40	795.8	797.2	801.2	31.18	801.2	24.30
41	801.2	802.6	803.0	26.50	803.0	24.50
42	803.0	803.8	806.0	27.86	806.0	23.30
43	806.0	806.4	808.4	25.28	808.4	22.21
44	808.4	809.6	810.4	29.04	810.4	20.72
45	810.4	811.2	812.0	25.86	812.0	21.27
46	812.0	813.6	815.6	24.73	815.6	19.03
47	815.6	816.4	820.2	24.32	820.2	19.76
48	820.2	820.8	823.4	23.51	823.4	18.61
49	823.4	824.0	825.0	21.43	825.0	16.82
50	825.0	825.8	826.8	20.84	826.8	15.11
51	826.8	827.6	829.2	18.62	829.2	15.88
52	829.2	830.4	831.8	17.97	831.8	14.83
53	831.8	832.6	833.6	16.60	833.6	14.24
54	833.6	834.4	837.0	17.54	837.0	11.95
55	837.0	837.8	839.8	14.59	839.8	10.72
56	839.8	840.4	842.4	12.69	842.4	9.642
57	842.4	843.0	843.6	12.89	843.6	9.436
58	843.6	844.8	850.0	11.61	850.0	9.751

Data points
nm	Data
420.0	7.226
420.2	7.597
420.4	7.605
420.6	7.621
420.8	8.489
421.0	9.384
421.2	10.37
421.4	10.41
421.6	10.82
421.8	9.186
422.0	9.019
422.2	8.153
422.4	8.568
422.6	8.125
422.8	8.561
423.0	8.535
423.2	10.09
423.4	10.64
423.6	10.88
423.8	9.828
424.0	9.096
424.2	9.078
424.4	8.644
424.6	8.616
424.8	8.555
425.0	8.210
425.2	7.932
425.4	7.970
425.6	7.210
425.8	7.923
426.0	8.754
426.2	8.630
426.4	9.096
426.6	9.788
426.8	9.696
427.0	9.959
427.2	8.976
427.4	7.198
427.6	7.505
427.8	9.446
428.0	9.417
428.2	9.712
428.4	8.493
428.6	7.289
428.8	7.424
429.0	8.807
429.2	9.159
429.4	9.921
429.6	10.06
429.8	10.76
430.0	11.36
430.2	10.89
430.4	10.67
430.6	9.403
430.8	8.348
431.0	7.843
431.2	7.631
431.4	7.459
431.6	7.623
431.8	8.136
432.0	8.301
432.2	9.562
432.4	9.902
432.6	9.624
432.8	9.382
433.0	9.058
433.2	7.990
433.4	8.949
433.6	8.426
433.8	8.134
434.0	8.599
434.2	9.237
434.4	9.446
434.6	9.948
434.8	10.25
435.0	9.886
435.2	9.957
435.4	9.175
435.6	8.406
435.8	8.074
436.0	9.094
436.2	9.588
436.4	9.936
436.6	8.943
436.8	8.945
437.0	8.807
437.2	9.479
437.4	9.172
437.6	8.622
437.8	8.662
438.0	8.525
438.2	8.478
438.4	9.160
438.6	9.386
438.8	9.654
439.0	10.29
439.2	10.11
439.4	9.433
439.6	9.474
439.8	8.706
440.0	9.023
440.2	8.755
440.4	9.030
440.6	8.166
440.8	8.535
441.0	8.855
441.2	9.586
441.4	10.01
441.6	11.02
441.8	10.71
442.0	10.32
442.2	10.48
442.4	9.527
442.6	9.950
442.8	10.39
443.0	10.23
443.2	9.514
443.4	9.160
443.6	8.630
443.8	8.854
444.0	9.661
444.2	10.07
444.4	10.65
444.6	11.48
444.8	11.26
445.0	11.04
445.2	11.40
445.4	11.17
445.6	10.95
445.8	11.28
446.0	10.77
446.2	10.16
446.4	9.982
446.6	9.618
446.8	9.031
447.0	8.876
447.2	9.515
447.4	10.38
447.6	11.23
447.8	11.05
448.0	9.835
448.2	9.201
448.4	8.556
448.6	8.091
448.8	8.813
449.0	9.282
449.2	9.478
449.4	10.97
449.6	10.59
449.8	10.46
450.0	12.03
450.2	12.07
450.4	11.97
450.6	11.51
450.8	10.44
451.0	9.857
451.2	9.963
451.4	8.981
451.6	8.787
451.8	8.309
452.0	9.613
452.2	9.808
452.4	10.83
452.6	11.52
452.8	11.30
453.0	10.28
453.2	10.75
453.4	9.567
453.6	10.03
453.8	11.12
454.0	10.83
454.2	10.78
454.4	11.15
454.6	10.71
454.8	10.15
455.0	10.67
455.2	10.84
455.4	12.54
455.6	13.07
455.8	12.47
456.0	11.39
456.2	11.30
456.4	10.86
456.6	11.10
456.8	11.47
457.0	10.56
457.2	10.75
457.4	11.85
457.6	10.73
457.8	10.32
458.0	11.19
458.2	11.71
458.4	12.67
458.6	12.78
458.8	10.92
459.0	10.17
459.2	10.91
459.4	12.07
459.6	12.83
459.8	13.04
460.0	12.12
460.2	11.51
460.4	11.62
460.6	12.09
460.8	12.51
461.0	14.24
461.2	14.55
461.4	14.27
461.6	14.18
461.8	14.43
462.0	14.88
462.2	16.21
462.4	15.00
462.6	14.68
462.8	14.29
463.0	14.71
463.2	16.14
463.4	16.88
463.6	16.03
463.8	16.61
464.0	15.08
464.2	14.62
464.4	15.75
464.6	16.52
464.8	18.29
465.0	19.20
465.2	18.60
465.4	18.25
465.6	18.39
465.8	18.70
466.0	19.56
466.2	19.85
466.4	20.02
466.6	20.04
466.8	20.88
467.0	21.95
467.2	21.25
467.4	21.97
467.6	22.68
467.8	22.46
468.0	24.77
468.2	26.99
468.4	26.47
468.6	27.70
468.8	28.13
469.0	27.84
469.2	29.56
469.4	30.25
469.6	29.51
469.8	28.39
470.0	28.32
470.2	30.00
470.4	32.77
470.6	34.65
470.8	35.32
471.0	34.09
471.2	35.28
471.4	36.64
471.6	39.64
471.8	41.79
472.0	45.30
472.2	45.81
472.4	47.46
472.6	47.67
472.8	47.87
473.0	46.66
473.2	49.03
473.4	50.32
473.6	52.17
473.8	55.49
474.0	56.57
474.2	59.21
474.4	64.29
474.6	67.89
474.8	70.73
475.0	72.69
475.2	72.19
475.4	72.47
475.6	75.19
475.8	75.44
476.0	78.08
476.2	80.10
476.4	83.64
476.6	88.21
476.8	89.61
477.0	88.07
477.2	89.86
477.4	92.32
477.6	98.12
477.8	107.0
478.0	109.4
478.2	109.3
478.4	109.0
478.6	110.7
478.8	112.4
479.0	120.5
479.2	125.4
479.4	128.0
479.6	128.4
479.8	133.5
480.0	140.3
480.2	150.5
480.4	155.6
480.6	158.8
480.8	162.3
481.0	166.4
481.2	174.5
481.4	179.7
481.6	185.9
481.8	190.4
482.0	199.7
482.2	204.2
482.4	210.5
482.6	216.4
482.8	227.0
483.0	230.9
483.2	236.6
483.4	243.3
483.6	252.0
483.8	262.5
484.0	272.4
484.2	280.3
484.4	289.6
484.6	302.1
484.8	315.5
485.0	325.2
485.2	336.3
485.4	347.1
485.6	358.5
485.8	367.1
486.0	372.6
486.2	381.4
486.4	397.0
486.6	411.1
486.8	430.2
487.0	441.2
487.2	454.2
487.4	465.6
487.6	474.9
487.8	484.7
488.0	491.6
488.2	501.0
488.4	513.5
488.6	531.6
488.8	551.9
489.0	571.1
489.2	581.9
489.4	601.4
489.6	614.0
489.8	640.3
490.0	659.0
490.2	675.0
490.4	690.6
490.6	712.1
490.8	731.5
491.0	762.8
491.2	785.7
491.4	804.7
491.6	814.9
491.8	834.2
492.0	857.1
492.2	882.0
492.4	911.9
492.6	935.4
492.8	957.3
493.0	974.5
493.2	1001
493.4	1026
493.6	1052
493.8	1078
494.0	1114
494.2	1125
494.4	1148
494.6	1179
494.8	1207
495.0	1243
495.2	1279
495.4	1312
495.6	1341
495.8	1372
496.0	1412
496.2	1444
496.4	1471
496.6	1504
496.8	1532
497.0	1565
497.2	1613
497.4	1643
497.6	1676
497.8	1710
498.0	1741
498.2	1769
498.4	1802
498.6	1829
498.8	1867
499.0	1903
499.2	1945
499.4	1991
499.6	2031
499.8	2067
500.0	2102
500.2	2138
500.4	2192
500.6	2255
500.8	2312
501.0	2361
501.2	2405
501.4	2434
501.6	2473
501.8	2518
502.0	2561
502.2	2605
502.4	2654
502.6	2699
502.8	2754
503.0	2804
503.2	2855
503.4	2889
503.6	2922
503.8	2975
504.0	3040
504.2	3105
504.4	3162
504.6	3204
504.8	3244
505.0	3278
505.2	3336
505.4	3402
505.6	3427
505.8	3489
506.0	3528
506.2	3569
506.4	3646
506.6	3699
506.8	3735
507.0	3804
507.2	3843
507.4	3890
507.6	3972
507.8	4027
508.0	4080
508.2	4142
508.4	4191
508.6	4243
508.8	4286
509.0	4323
509.2	4367
509.4	4411
509.6	4469
509.8	4539
510.0	4570
510.2	4617
510.4	4673
510.6	4720
510.8	4774
511.0	4831
511.2	4876
511.4	4960
511.6	5039
511.8	5114
512.0	5171
512.2	5191
512.4	5218
512.6	5254
512.8	5306
513.0	5360
513.2	5416
513.4	5474
513.6	5545
513.8	5609
514.0	5662
514.2	5704
514.4	5737
514.6	5796
514.8	5842
515.0	5921
515.2	5970
515.4	6031
515.6	6090
515.8	6133
516.0	6157
516.2	6180
516.4	6199
516.6	6234
516.8	6302
517.0	6380
517.2	6432
517.4	6481
517.6	6535
517.8	6565
518.0	6609
518.2	6630
518.4	6650
518.6	6661
518.8	6731
519.0	6790
519.2	6868
519.4	6941
519.6	6993
519.8	7003
520.0	7059
520.2	7110
520.4	7168
520.6	7221
520.8	7255
521.0	7268
521.2	7286
521.4	7334
521.6	7378
521.8	7420
522.0	7490
522.2	7528
522.4	7550
522.6	7582
522.8	7598
523.0	7593
523.2	7620
523.4	7659
523.6	7726
523.8	7780
524.0	7833
524.2	7836
524.4	7828
524.6	7819
524.8	7872
525.0	7909
525.2	7981
525.4	8014
525.6	8034
525.8	8062
526.0	8100
526.2	8152
526.4	8194
526.6	8219
526.8	8213
527.0	8219
527.2	8222
527.4	8252
527.6	8274
527.8	8314
528.0	8334
528.2	8355
528.4	8380
528.6	8407
528.8	8431
529.0	8463
529.2	8517
529.4	8531
529.6	8523
529.8	8536
530.0	8556
530.2	8590
530.4	8614
530.6	8615
530.8	8616
531.0	8624
531.2	8655
531.4	8692
531.6	8697
531.8	8690
532.0	8698
532.2	8685
532.4	8694
532.6	8717
532.8	8728
533.0	8733
533.2	8744
533.4	8751
533.6	8762
533.8	8799
534.0	8811
534.2	8829
534.4	8823
534.6	8819
534.8	8842
535.0	8848
535.2	8859
535.4	8875
535.6	8875
535.8	8870
536.0	8903
536.2	8900
536.4	8920
536.6	8897
536.8	8866
537.0	8849
537.2	8845
537.4	8896
537.6	8947
537.8	8963
538.0	8932
538.2	8903
538.4	8866
538.6	8893
538.8	8923
539.0	8949
539.2	8924
539.4	8901
539.6	8867
539.8	8868
540.0	8876
540.2	8910
540.4	8916
540.6	8948
540.8	8919
541.0	8901
541.2	8860
541.4	8868
541.6	8866
541.8	8897
542.0	8902
542.2	8892
542.4	8873
542.6	8868
542.8	8820
543.0	8800
543.2	8789
543.4	8776
543.6	8807
543.8	8841
544.0	8855
544.2	8840
544.4	8822
544.6	8780
544.8	8749
545.0	8743
545.2	8771
545.4	8762
545.6	8769
545.8	8740
546.0	8709
546.2	8683
546.4	8672
546.6	8683
546.8	8669
547.0	8648
547.2	8650
547.4	8659
547.6	8641
547.8	8630
548.0	8583
548.2	8532
548.4	8530
548.6	8555
548.8	8549
549.0	8561
549.2	8538
549.4	8526
549.6	8515
549.8	8494
550.0	8464
550.2	8449
550.4	8441
550.6	8394
550.8	8383
551.0	8375
551.2	8341
551.4	8350
551.6	8367
551.8	8319
552.0	8353
552.2	8341
552.4	8301
552.6	8281
552.8	8258
553.0	8232
553.2	8218
553.4	8210
553.6	8174
553.8	8143
554.0	8155
554.2	8155
554.4	8160
554.6	8165
554.8	8103
555.0	8059
555.2	8017
555.4	8009
555.6	8019
555.8	7998
556.0	7974
556.2	7947
556.4	7920
556.6	7933
556.8	7937
557.0	7946
557.2	7950
557.4	7898
557.6	7844
557.8	7812
558.0	7787
558.2	7780
558.4	7767
558.6	7728
558.8	7705
559.0	7735
559.2	7752
559.4	7724
559.6	7687
559.8	7636
560.0	7597
560.2	7571
560.4	7555
560.6	7544
560.8	7533
561.0	7518
561.2	7500
561.4	7467
561.6	7450
561.8	7442
562.0	7406
562.2	7358
562.4	7315
562.6	7297
562.8	7300
563.0	7296
563.2	7276
563.4	7258
563.6	7245
563.8	7196
564.0	7175
564.2	7148
564.4	7131
564.6	7146
564.8	7154
565.0	7111
565.2	7085
565.4	7069
565.6	7072
565.8	7069
566.0	7038
566.2	7006
566.4	6959
566.6	6945
566.8	6929
567.0	6913
567.2	6856
567.4	6823
567.6	6792
567.8	6794
568.0	6796
568.2	6804
568.4	6781
568.6	6728
568.8	6686
569.0	6649
569.2	6635
569.4	6633
569.6	6629
569.8	6615
570.0	6589
570.2	6556
570.4	6536
570.6	6492
570.8	6448
571.0	6435
571.2	6398
571.4	6398
571.6	6395
571.8	6362
572.0	6339
572.2	6306
572.4	6270
572.6	6263
572.8	6260
573.0	6246
573.2	6253
573.4	6215
573.6	6186
573.8	6165
574.0	6148
574.2	6110
574.4	6105
574.6	6082
574.8	6026
575.0	5984
575.2	5978
575.4	5963
575.6	5954
575.8	5956
576.0	5916
576.2	5899
576.4	5909
576.6	5904
576.8	5882
577.0	5840
577.2	5791
577.4	5751
577.6	5712
577.8	5698
578.0	5707
578.2	5690
578.4	5701
578.6	5687
578.8	5652
579.0	5608
579.2	5565
579.4	5527
579.6	5526
579.8	5506
580.0	5483
580.2	5459
580.4	5444
580.6	5420
580.8	5416
581.0	5420
581.2	5406
581.4	5399
581.6	5373
581.8	5330
582.0	5314
582.2	5298
582.4	5265
582.6	5241
582.8	5209
583.0	5165
583.2	5136
583.4	5132
583.6	5120
583.8	5120
584.0	5108
584.2	5053
584.4	5020
584.6	5013
584.8	4995
585.0	4968
585.2	4963
585.4	4940
585.6	4913
585.8	4899
586.0	4868
586.2	4821
586.4	4834
586.6	4827
586.8	4795
587.0	4794
587.2	4774
587.4	4774
587.6	4771
587.8	4741
588.0	4688
588.2	4654
588.4	4632
588.6	4623
588.8	4594
589.0	4571
589.2	4546
589.4	4538
589.6	4526
589.8	4506
590.0	4489
590.2	4472
590.4	4460
590.6	4445
590.8	4426
591.0	4398
591.2	4378
591.4	4370
591.6	4351
591.8	4322
592.0	4303
592.2	4252
592.4	4219
592.6	4199
592.8	4171
593.0	4173
593.2	4173
593.4	4176
593.6	4160
593.8	4121
594.0	4098
594.2	4081
594.4	4065
594.6	4067
594.8	4032
595.0	4010
595.2	3997
595.4	3973
595.6	3957
595.8	3939
596.0	3905
596.2	3884
596.4	3878
596.6	3870
596.8	3866
597.0	3854
597.2	3830
597.4	3817
597.6	3814
597.8	3785
598.0	3771
598.2	3742
598.4	3729
598.6	3730
598.8	3725
599.0	3706
599.2	3682
599.4	3654
599.6	3643
599.8	3615
600.0	3595
600.2	3569
600.4	3533
600.6	3514
600.8	3508
601.0	3487
601.2	3480
601.4	3476
601.6	3472
601.8	3461
602.0	3452
602.2	3429
602.4	3394
602.6	3369
602.8	3345
603.0	3327
603.2	3320
603.4	3317
603.6	3294
603.8	3284
604.0	3256
604.2	3220
604.4	3192
604.6	3179
604.8	3185
605.0	3216
605.2	3210
605.4	3189
605.6	3146
605.8	3098
606.0	3086
606.2	3088
606.4	3073
606.6	3075
606.8	3052
607.0	3043
607.2	3032
607.4	3011
607.6	2976
607.8	2955
608.0	2946
608.2	2955
608.4	2943
608.6	2933
608.8	2921
609.0	2918
609.2	2904
609.4	2882
609.6	2856
609.8	2828
610.0	2810
610.2	2799
610.4	2784
610.6	2781
610.8	2754
611.0	2723
611.2	2700
611.4	2669
611.6	2665
611.8	2667
612.0	2654
612.2	2649
612.4	2646
612.6	2626
612.8	2617
613.0	2596
613.2	2574
613.4	2573
613.6	2586
613.8	2588
614.0	2571
614.2	2534
614.4	2501
614.6	2482
614.8	2474
615.0	2478
615.2	2454
615.4	2433
615.6	2438
615.8	2424
616.0	2421
616.2	2412
616.4	2379
616.6	2362
616.8	2352
617.0	2332
617.2	2331
617.4	2312
617.6	2290
617.8	2286
618.0	2285
618.2	2271
618.4	2272
618.6	2257
618.8	2240
619.0	2229
619.2	2217
619.4	2186
619.6	2177
619.8	2167
620.0	2147
620.2	2138
620.4	2125
620.6	2109
620.8	2106
621.0	2109
621.2	2090
621.4	2084
621.6	2058
621.8	2033
622.0	2031
622.2	2029
622.4	2024
622.6	2015
622.8	1981
623.0	1953
623.2	1953
623.4	1958
623.6	1956
623.8	1966
624.0	1963
624.2	1937
624.4	1925
624.6	1912
624.8	1894
625.0	1892
625.2	1881
625.4	1847
625.6	1827
625.8	1809
626.0	1798
626.2	1804
626.4	1815
626.6	1800
626.8	1788
627.0	1774
627.2	1767
627.4	1769
627.6	1777
627.8	1754
628.0	1735
628.2	1702
628.4	1692
628.6	1679
628.8	1669
629.0	1665
629.2	1647
629.4	1643
629.6	1648
629.8	1646
630.0	1638
630.2	1635
630.4	1600
630.6	1588
630.8	1574
631.0	1553
631.2	1553
631.4	1563
631.6	1563
631.8	1556
632.0	1541
632.2	1522
632.4	1516
632.6	1502
632.8	1483
633.0	1469
633.2	1465
633.4	1465
633.6	1470
633.8	1463
634.0	1447
634.2	1438
634.4	1429
634.6	1415
634.8	1407
635.0	1395
635.2	1397
635.4	1391
635.6	1386
635.8	1374
636.0	1362
636.2	1343
636.4	1349
636.6	1346
636.8	1347
637.0	1324
637.2	1313
637.4	1286
637.6	1272
637.8	1268
638.0	1280
638.2	1286
638.4	1293
638.6	1285
638.8	1267
639.0	1246
639.2	1240
639.4	1236
639.6	1230
639.8	1222
640.0	1213
640.2	1197
640.4	1192
640.6	1181
640.8	1178
641.0	1171
641.2	1171
641.4	1162
641.6	1146
641.8	1132
642.0	1130
642.2	1126
642.4	1124
642.6	1118
642.8	1106
643.0	1095
643.2	1097
643.4	1096
643.6	1092
643.8	1090
644.0	1076
644.2	1073
644.4	1073
644.6	1064
644.8	1057
645.0	1048
645.2	1038
645.4	1044
645.6	1040
645.8	1026
646.0	1024
646.2	1019
646.4	1018
646.6	1013
646.8	1003
647.0	988.0
647.2	979.3
647.4	977.8
647.6	979.3
647.8	968.6
648.0	954.3
648.2	950.1
648.4	945.5
648.6	959.3
648.8	965.7
649.0	952.7
649.2	925.5
649.4	905.0
649.6	892.2
649.8	895.1
650.0	897.4
650.2	898.3
650.4	884.9
650.6	874.3
650.8	862.0
651.0	856.8
651.2	860.0
651.4	858.1
651.6	864.6
651.8	862.5
652.0	849.8
652.2	842.5
652.4	841.8
652.6	829.3
652.8	833.4
653.0	829.4
653.2	817.2
653.4	818.6
653.6	818.8
653.8	803.0
654.0	791.1
654.2	785.6
654.4	781.6
654.6	790.4
654.8	791.5
655.0	776.1
655.2	762.4
655.4	754.3
655.6	750.6
655.8	750.9
656.0	754.7
656.2	748.4
656.4	736.6
656.6	725.6
656.8	713.5
657.0	714.6
657.2	720.2
657.4	722.6
657.6	717.0
657.8	708.8
658.0	704.8
658.2	702.2
658.4	704.1
658.6	702.7
658.8	695.3
659.0	689.9
659.2	688.1
659.4	687.3
659.6	684.2
659.8	687.6
660.0	679.0
660.2	670.7
660.4	665.8
660.6	661.8
660.8	653.2
661.0	653.4
661.2	652.3
661.4	643.2
661.6	641.2
661.8	626.3
662.0	619.0
662.2	614.7
662.4	620.4
662.6	620.0
662.8	618.9
663.0	603.8
663.2	591.4
663.4	589.2
663.6	588.1
663.8	592.3
664.0	591.9
664.2	587.1
664.4	581.9
664.6	580.9
664.8	575.7
665.0	574.8
665.2	572.5
665.4	567.5
665.6	569.8
665.8	565.7
666.0	559.2
666.2	556.1
666.4	553.0
666.6	545.3
666.8	542.4
667.0	536.9
667.2	532.4
667.4	527.1
667.6	517.6
667.8	515.9
668.0	521.0
668.2	525.6
668.4	520.6
668.6	513.6
668.8	507.1
669.0	503.5
669.2	508.6
669.4	505.3
669.6	495.2
669.8	490.1
670.0	487.1
670.2	482.6
670.4	489.2
670.6	487.5
670.8	486.1
671.0	482.0
671.2	478.3
671.4	475.7
671.6	477.4
671.8	471.0
672.0	465.6
672.2	460.6
672.4	463.0
672.6	463.6
672.8	464.8
673.0	460.1
673.2	456.9
673.4	454.4
673.6	452.7
673.8	450.0
674.0	446.3
674.2	437.7
674.4	433.2
674.6	431.3
674.8	424.7
675.0	424.4
675.2	427.4
675.4	422.7
675.6	419.4
675.8	416.3
676.0	416.5
676.2	419.5
676.4	424.0
676.6	414.5
676.8	405.2
677.0	395.9
677.2	395.8
677.4	394.0
677.6	394.7
677.8	389.9
678.0	388.8
678.2	389.1
678.4	385.6
678.6	383.7
678.8	381.2
679.0	381.9
679.2	384.4
679.4	381.6
679.6	382.1
679.8	378.3
680.0	372.5
680.2	367.9
680.4	363.2
680.6	358.3
680.8	360.2
681.0	356.5
681.2	356.4
681.4	350.8
681.6	347.0
681.8	347.5
682.0	345.6
682.2	350.9
682.4	346.8
682.6	340.4
682.8	340.2
683.0	341.0
683.2	337.9
683.4	345.3
683.6	339.9
683.8	337.9
684.0	332.2
684.2	329.8
684.4	327.1
684.6	328.2
684.8	324.9
685.0	327.0
685.2	318.1
685.4	317.9
685.6	324.0
685.8	322.0
686.0	317.2
686.2	317.2
686.4	308.2
686.6	302.5
686.8	303.3
687.0	299.2
687.2	298.6
687.4	297.3
687.6	295.2
687.8	298.4
688.0	299.7
688.2	298.7
688.4	299.8
688.6	290.6
688.8	284.5
689.0	285.6
689.2	284.9
689.4	283.5
689.6	287.2
689.8	282.7
690.0	277.5
690.2	277.1
690.4	277.7
690.6	280.1
690.8	279.1
691.0	271.7
691.2	263.8
691.4	258.7
691.6	259.3
691.8	268.6
692.0	266.7
692.2	265.1
692.4	260.9
692.6	253.1
692.8	250.8
693.0	247.9
693.2	242.5
693.4	243.3
693.6	247.9
693.8	258.9
694.0	259.7
694.2	254.7
694.4	245.3
694.6	239.5
694.8	240.2
695.0	246.5
695.2	240.8
695.4	242.6
695.6	237.7
695.8	234.5
696.0	235.3
696.2	234.7
696.4	235.6
696.6	236.9
696.8	231.6
697.0	225.4
697.2	224.5
697.4	228.0
697.6	234.9
697.8	235.4
698.0	228.8
698.2	223.1
698.4	219.1
698.6	220.9
698.8	222.7
699.0	224.0
699.2	223.0
699.4	219.8
699.6	214.3
699.8	210.4
700.0	210.3
700.2	215.7
700.4	218.3
700.6	215.6
700.8	209.9
701.0	205.8
701.2	206.6
701.4	211.0
701.6	209.6
701.8	204.4
702.0	208.1
702.2	209.5
702.4	208.7
702.6	209.0
702.8	202.7
703.0	196.8
703.2	201.1
703.4	204.1
703.6	202.1
703.8	200.1
704.0	192.3
704.2	188.7
704.4	187.6
704.6	194.2
704.8	196.4
705.0	192.3
705.2	187.7
705.4	183.3
705.6	184.7
705.8	192.8
706.0	195.6
706.2	192.6
706.4	191.8
706.6	184.6
706.8	185.4
707.0	187.6
707.2	179.8
707.4	176.3
707.6	175.5
707.8	173.4
708.0	176.2
708.2	178.8
708.4	171.5
708.6	169.7
708.8	172.5
709.0	175.5
709.2	174.8
709.4	178.6
709.6	171.6
709.8	167.5
710.0	170.8
710.2	173.8
710.4	170.3
710.6	172.7
710.8	167.5
711.0	163.6
711.2	163.6
711.4	163.2
711.6	162.2
711.8	164.8
712.0	166.9
712.2	166.9
712.4	166.8
712.6	162.7
712.8	164.0
713.0	162.0
713.2	160.1
713.4	158.5
713.6	157.0
713.8	154.6
714.0	155.8
714.2	155.4
714.4	154.6
714.6	151.8
714.8	147.4
715.0	143.5
715.2	142.4
715.4	146.4
715.6	146.7
715.8	145.7
716.0	145.9
716.2	148.4
716.4	151.1
716.6	152.2
716.8	152.7
717.0	148.7
717.2	141.3
717.4	141.2
717.6	140.8
717.8	137.8
718.0	143.2
718.2	142.8
718.4	139.6
718.6	139.1
718.8	140.8
719.0	137.5
719.2	139.2
719.4	141.3
719.6	142.3
719.8	137.9
720.0	136.3
720.2	130.6
720.4	130.8
720.6	132.6
720.8	132.7
721.0	130.7
721.2	127.7
721.4	126.0
721.6	129.0
721.8	131.8
722.0	132.3
722.2	132.4
722.4	128.9
722.6	127.2
722.8	127.0
723.0	127.5
723.2	123.7
723.4	121.8
723.6	120.5
723.8	117.1
724.0	118.1
724.2	117.6
724.4	118.0
724.6	119.1
724.8	120.4
725.0	118.0
725.2	118.0
725.4	116.0
725.6	115.5
725.8	113.1
726.0	113.6
726.2	113.1
726.4	112.9
726.6	112.7
726.8	113.8
727.0	113.0
727.2	115.9
727.4	114.1
727.6	111.2
727.8	106.8
728.0	108.6
728.2	110.7
728.4	112.6
728.6	111.9
728.8	111.9
729.0	108.2
729.2	108.4
729.4	108.3
729.6	102.4
729.8	101.5
730.0	100.7
730.2	99.89
730.4	103.6
730.6	104.1
730.8	99.25
731.0	99.03
731.2	100.0
731.4	100.5
731.6	105.2
731.8	102.8
732.0	97.63
732.2	96.55
732.4	96.89
732.6	96.08
732.8	94.05
733.0	91.76
733.2	92.93
733.4	95.85
733.6	93.44
733.8	93.53
734.0	90.94
734.2	90.04
734.4	92.22
734.6	92.89
734.8	89.84
735.0	88.03
735.2	87.82
735.4	86.00
735.6	89.48
735.8	89.64
736.0	89.73
736.2	86.03
736.4	83.88
736.6	80.29
736.8	82.14
737.0	82.14
737.2	82.89
737.4	84.88
737.6	86.41
737.8	86.30
738.0	85.81
738.2	85.69
738.4	84.28
738.6	84.49
738.8	83.79
739.0	83.12
739.2	83.30
739.4	84.14
739.6	82.87
739.8	81.51
740.0	77.88
740.2	76.58
740.4	76.23
740.6	75.70
740.8	72.66
741.0	74.11
741.2	73.02
741.4	74.50
741.6	73.10
741.8	73.56
742.0	74.01
742.2	74.89
742.4	76.77
742.6	75.82
742.8	72.54
743.0	69.97
743.2	69.22
743.4	72.88
743.6	74.30
743.8	75.01
744.0	74.49
744.2	70.35
744.4	67.61
744.6	71.73
744.8	69.25
745.0	67.91
745.2	68.18
745.4	66.35
745.6	65.52
745.8	65.92
746.0	66.71
746.2	66.50
746.4	68.28
746.6	66.49
746.8	63.33
747.0	59.89
747.2	59.86
747.4	60.49
747.6	61.27
747.8	60.18
748.0	59.07
748.2	58.04
748.4	60.42
748.6	63.23
748.8	66.38
749.0	67.04
749.2	67.15
749.4	63.22
749.6	60.77
749.8	58.86
750.0	59.38
750.2	60.91
750.4	62.27
750.6	60.52
750.8	58.29
751.0	58.92
751.2	59.15
751.4	60.95
751.6	61.18
751.8	59.55
752.0	57.24
752.2	57.81
752.4	54.72
752.6	53.50
752.8	53.02
753.0	53.89
753.2	53.84
753.4	55.24
753.6	54.34
753.8	55.09
754.0	54.66
754.2	55.86
754.4	54.15
754.6	53.28
754.8	52.81
755.0	53.79
755.2	52.98
755.4	53.44
755.6	54.02
755.8	55.23
756.0	55.01
756.2	54.84
756.4	52.62
756.6	50.69
756.8	49.69
757.0	51.62
757.2	52.87
757.4	54.18
757.6	54.40
757.8	51.19
758.0	48.54
758.2	49.10
758.4	49.25
758.6	49.20
758.8	49.24
759.0	45.09
759.2	45.28
759.4	47.84
759.6	49.53
759.8	49.58
760.0	48.85
760.2	44.09
760.4	42.23
760.6	44.27
760.8	45.63
761.0	46.17
761.2	48.30
761.4	45.72
761.6	42.88
761.8	44.91
762.0	45.14
762.2	46.10
762.4	48.79
762.6	48.11
762.8	45.61
763.0	46.29
763.2	44.30
763.4	45.93
763.6	46.08
763.8	46.29
764.0	45.10
764.2	43.60
764.4	39.81
764.6	39.97
764.8	40.46
765.0	41.40
765.2	43.13
765.4	42.14
765.6	41.13
765.8	40.14
766.0	40.34
766.2	38.90
766.4	42.28
766.6	42.13
766.8	42.77
767.0	44.51
767.2	44.09
767.4	41.41
767.6	41.14
767.8	37.48
768.0	36.30
768.2	38.97
768.4	40.25
768.6	39.36
768.8	37.90
769.0	37.93
769.2	38.19
769.4	38.10
769.6	37.66
769.8	35.47
770.0	33.46
770.2	33.46
770.4	33.35
770.6	34.41
770.8	35.03
771.0	35.42
771.2	34.68
771.4	34.91
771.6	36.00
771.8	36.01
772.0	33.77
772.2	33.32
772.4	31.53
772.6	32.88
772.8	34.63
773.0	35.16
773.2	35.85
773.4	36.20
773.6	34.80
773.8	34.09
774.0	33.70
774.2	34.62
774.4	34.00
774.6	33.37
774.8	31.85
775.0	32.30
775.2	31.97
775.4	32.66
775.6	30.94
775.8	30.07
776.0	30.54
776.2	33.05
776.4	33.75
776.6	32.81
776.8	33.14
777.0	32.45
777.2	32.62
777.4	31.67
777.6	29.10
777.8	26.34
778.0	26.45
778.2	26.07
778.4	28.44
778.6	30.80
778.8	31.32
779.0	32.44
779.2	31.95
779.4	30.15
779.6	30.03
779.8	29.05
780.0	28.64
780.2	28.52
780.4	28.63
780.6	28.45
780.8	27.85
781.0	28.45
781.2	30.52
781.4	30.47
781.6	31.05
781.8	30.41
782.0	28.33
782.2	29.17
782.4	29.13
782.6	28.54
782.8	28.96
783.0	29.42
783.2	27.69
783.4	28.78
783.6	29.05
783.8	28.77
784.0	27.19
784.2	26.12
784.4	25.34
784.6	26.07
784.8	27.70
785.0	29.05
785.2	29.76
785.4	30.39
785.6	30.47
785.8	29.63
786.0	28.74
786.2	28.61
786.4	28.45
786.6	28.78
786.8	27.41
787.0	26.86
787.2	26.54
787.4	25.44
787.6	24.80
787.8	25.51
788.0	27.07
788.2	28.48
788.4	30.78
788.6	31.25
788.8	30.41
789.0	28.69
789.2	27.18
789.4	26.15
789.6	28.33
789.8	30.04
790.0	30.33
790.2	28.83
790.4	26.10
790.6	25.08
790.8	26.26
791.0	26.78
791.2	26.41
791.4	26.16
791.6	26.20
791.8	27.70
792.0	29.48
792.2	30.43
792.4	29.17
792.6	27.50
792.8	25.81
793.0	26.07
793.2	27.59
793.4	30.16
793.6	31.69
793.8	31.51
794.0	29.85
794.2	28.87
794.4	27.67
794.6	26.79
794.8	26.41
795.0	27.60
795.2	27.52
795.4	26.85
795.6	24.50
795.8	23.53
796.0	23.70
796.2	26.25
796.4	27.01
796.6	27.38
796.8	26.93
797.0	29.43
797.2	31.18
797.4	30.76
797.6	27.81
797.8	26.64
798.0	26.16
798.2	26.85
798.4	28.17
798.6	28.23
798.8	27.10
799.0	26.64
799.2	27.16
799.4	25.83
799.6	26.25
799.8	27.75
800.0	27.63
800.2	26.64
800.4	27.65
800.6	25.87
800.8	25.67
801.0	25.35
801.2	24.30
801.4	24.94
801.6	25.80
801.8	25.41
802.0	26.11
802.2	25.47
802.4	25.64
802.6	26.50
802.8	24.63
803.0	24.50
803.2	24.90
803.4	26.27
803.6	27.13
803.8	27.86
804.0	25.90
804.2	25.56
804.4	25.16
804.6	25.78
804.8	25.66
805.0	26.18
805.2	24.64
805.4	24.43
805.6	23.49
805.8	23.39
806.0	23.30
806.2	24.92
806.4	25.28
806.6	25.19
806.8	25.21
807.0	24.25
807.2	23.09
807.4	24.94
807.6	24.18
807.8	23.89
808.0	23.68
808.2	22.33
808.4	22.21
808.6	22.96
808.8	22.49
809.0	24.31
809.2	25.50
809.4	27.47
809.6	29.04
809.8	27.30
810.0	25.22
810.2	23.05
810.4	20.72
810.6	21.90
810.8	23.55
811.0	23.92
811.2	25.86
811.4	24.56
811.6	22.58
811.8	21.88
812.0	21.27
812.2	21.71
812.4	23.82
812.6	23.24
812.8	23.90
813.0	23.04
813.2	23.65
813.4	24.28
813.6	24.73
813.8	23.80
814.0	22.82
814.2	20.60
814.4	20.36
814.6	20.23
814.8	21.33
815.0	20.71
815.2	19.59
815.4	19.38
815.6	19.03
815.8	20.15
816.0	22.52
816.2	23.48
816.4	24.32
816.6	23.72
816.8	23.01
817.0	22.18
817.2	21.78
817.4	20.73
817.6	21.69
817.8	20.94
818.0	21.42
818.2	21.24
818.4	21.67
818.6	20.57
818.8	21.99
819.0	20.97
819.2	20.87
819.4	21.88
819.6	21.54
819.8	20.23
820.0	20.20
820.2	19.76
820.4	20.81
820.6	23.14
820.8	23.51
821.0	23.22
821.2	22.78
821.4	21.74
821.6	22.17
821.8	22.16
822.0	22.05
822.2	21.34
822.4	20.75
822.6	19.25
822.8	20.17
823.0	19.62
823.2	19.69
823.4	18.61
823.6	19.89
823.8	20.88
824.0	21.43
824.2	20.80
824.4	18.95
824.6	17.53
824.8	17.20
825.0	16.82
825.2	17.90
825.4	20.02
825.6	20.53
825.8	20.84
826.0	18.96
826.2	16.53
826.4	15.34
826.6	15.76
826.8	15.11
827.0	15.86
827.2	17.46
827.4	18.59
827.6	18.62
827.8	17.41
828.0	16.25
828.2	16.58
828.4	17.59
828.6	18.39
828.8	17.64
829.0	15.94
829.2	15.88
829.4	16.14
829.6	16.33
829.8	16.58
830.0	16.31
830.2	17.18
830.4	17.97
830.6	17.28
830.8	16.49
831.0	15.13
831.2	15.21
831.4	15.75
831.6	16.10
831.8	14.83
832.0	15.45
832.2	16.09
832.4	16.53
832.6	16.60
832.8	16.16
833.0	14.82
833.2	14.95
833.4	14.92
833.6	14.24
833.8	14.84
834.0	15.82
834.2	17.40
834.4	17.54
834.6	16.83
834.8	15.18
835.0	13.39
835.2	13.51
835.4	15.06
835.6	15.41
835.8	15.65
836.0	14.62
836.2	13.45
836.4	12.67
836.6	12.92
836.8	12.69
837.0	11.95
837.2	12.15
837.4	12.56
837.6	14.19
837.8	14.59
838.0	13.67
838.2	13.23
838.4	13.31
838.6	12.44
838.8	13.61
839.0	13.22
839.2	12.82
839.4	12.13
839.6	10.95
839.8	10.72
840.0	11.15
840.2	11.77
840.4	12.69
840.6	12.55
840.8	11.62
841.0	11.28
841.2	10.73
841.4	10.28
841.6	10.69
841.8	11.66
842.0	11.24
842.2	9.889
842.4	9.642
842.6	10.56
842.8	12.16
843.0	12.89
843.2	12.59
843.4	10.62
843.6	9.436
843.8	9.719
844.0	9.921
844.2	10.02
844.4	11.11
844.6	11.23
844.8	11.61
845.0	11.30
845.2	10.84
845.4	10.52
845.6	10.89
845.8	11.13
846.0	10.37
846.2	10.21
846.4	10.48
846.6	10.43
846.8	10.56
847.0	10.41
847.2	8.993
847.4	9.138
847.6	9.442
847.8	9.376
848.0	10.06
848.2	10.12
848.4	9.921
848.6	9.801
848.8	9.247
849.0	9.471
849.2	9.562
849.4	9.731
849.6	10.02
849.8	10.10
850.0	9.751

