Sample:	'20211010A(EM)
File name:	g-ni-cds 1;5 650v.FDS
Run date:	'09:38:16, 03/22/2023
Operator:	Administrator
Comment:	'

Instrument
Model:	F-4700 FL Spectrophotometer
Serial number:	2019-001
ROM Version:	5J24010 00

Instrument parameters
Measurement type:	Wavelength scan
Scan mode:	Emission
Data mode:	Fluorescence
EX WL:	400.0 nm
EM  Start WL:	420.0 nm
EM  End WL:	850.0 nm
Scan speed:	1200 nm/min
Delay:	0.0 s
EX Slit:	10.0 nm
EM Slit:	10.0 nm
PMT Voltage:	650 V
Response:	0.002 s
Corrected spectra:	Off
Shutter control:	On

Processing performed
Savitsky-Golay smoothed
Smoothing order:	3
Number of points:	7
Number of times:	1

Peak integration
Integration method:	Rectangular
Sensitivity:	1
Threshold:	1.000

Peaks
No.	Start(nm)	Apex(nm)	End(nm)	Height(Data)	Valley(nm)	Valley(Data)
1	421.6	425.8	427.0	4.498	427.0	3.037
2	427.0	431.8	433.2	4.462	433.2	2.633
3	433.2	446.6	447.6	4.484	447.6	3.396
4	447.6	449.4	451.6	4.749	451.6	3.595
5	451.6	453.4	455.0	5.404	455.0	3.626
6	455.0	458.2	459.0	5.450	459.0	4.325
7	459.0	461.4	463.4	6.392	463.4	5.269
8	463.4	464.4	465.2	7.760	465.2	6.735
9	465.2	538.4	539.0	3564	539.0	3546
10	539.0	540.4	685.2	3569	685.2	123.9
11	685.2	685.8	691.0	128.5	691.0	104.5
12	691.0	692.0	702.2	108.7	702.2	82.63
13	702.2	703.0	705.2	84.71	705.2	77.57
14	705.2	706.2	711.6	81.73	711.6	65.84
15	711.6	712.4	716.0	68.60	716.0	60.26
16	716.0	716.8	722.8	63.10	722.8	47.82
17	722.8	724.6	734.8	51.58	734.8	35.20
18	734.8	735.6	738.2	39.03	738.2	30.24
19	738.2	739.0	740.6	33.38	740.6	30.21
20	740.6	741.6	743.0	32.98	743.0	27.60
21	743.0	744.4	745.2	29.41	745.2	25.36
22	745.2	746.8	750.0	28.65	750.0	21.47
23	750.0	750.8	752.8	24.96	752.8	20.91
24	752.8	753.6	759.4	23.28	759.4	17.98
25	759.4	761.0	762.8	20.17	762.8	16.05
26	762.8	766.4	767.8	17.71	767.8	14.79
27	767.8	768.2	771.4	16.92	771.4	13.25
28	771.4	773.0	773.8	15.31	773.8	11.40
29	773.8	775.6	776.4	13.24	776.4	11.79
30	776.4	777.4	778.2	13.32	778.2	11.10
31	778.2	779.6	781.2	13.19	781.2	10.72
32	781.2	782.0	783.4	13.28	783.4	11.30
33	783.4	784.8	785.6	12.88	785.6	10.58
34	785.6	786.6	788.6	12.26	788.6	9.886
35	788.6	789.4	790.2	11.85	790.2	10.35
36	790.2	791.8	793.4	11.91	793.4	10.78
37	793.4	794.8	795.6	11.83	795.6	10.26
38	795.6	796.8	799.0	12.51	799.0	9.966
39	799.0	799.4	800.2	11.44	800.2	9.589
40	800.2	801.2	802.4	12.27	802.4	9.509
41	802.4	804.6	806.4	11.85	806.4	9.578
42	806.4	808.0	812.0	11.05	812.0	8.267
43	812.0	813.6	814.8	10.01	814.8	8.179
44	814.8	815.6	816.8	9.481	816.8	8.206
45	816.8	819.4	821.0	9.428	821.0	7.028
46	821.0	821.8	822.6	9.503	822.6	7.329
47	822.6	823.8	824.6	8.698	824.6	6.870
48	824.6	825.2	828.4	8.341	828.4	5.747
49	828.4	829.2	830.6	7.101	830.6	5.649
50	830.6	831.0	831.8	7.242	831.8	5.581
51	831.8	833.4	834.2	6.797	834.2	4.711
52	834.2	835.2	836.6	6.024	836.6	4.570
53	836.6	837.8	842.2	5.580	842.2	3.451
54	842.2	844.0	844.8	5.063	844.8	3.261

Data points
nm	Data
420.0	3.994
420.2	3.863
420.4	3.785
420.6	3.719
420.8	3.621
421.0	3.353
421.2	2.951
421.4	3.001
421.6	2.628
421.8	3.041
422.0	3.374
422.2	3.493
422.4	3.737
422.6	3.717
422.8	3.632
423.0	3.443
423.2	3.493
423.4	3.339
423.6	3.334
423.8	3.568
424.0	3.511
424.2	3.154
424.4	3.392
424.6	3.650
424.8	3.722
425.0	3.922
425.2	4.030
425.4	3.869
425.6	4.244
425.8	4.498
426.0	4.238
426.2	3.678
426.4	3.869
426.6	3.496
426.8	3.415
427.0	3.037
427.2	3.510
427.4	3.663
427.6	4.171
427.8	4.040
428.0	3.920
428.2	3.524
428.4	3.815
428.6	3.512
428.8	3.360
429.0	3.191
429.2	3.422
429.4	3.685
429.6	3.867
429.8	3.680
430.0	3.500
430.2	3.420
430.4	3.424
430.6	3.617
430.8	3.699
431.0	3.691
431.2	3.559
431.4	3.824
431.6	3.939
431.8	4.462
432.0	4.428
432.2	4.454
432.4	4.106
432.6	3.571
432.8	3.005
433.0	3.060
433.2	2.633
433.4	2.985
433.6	3.252
433.8	3.585
434.0	3.741
434.2	3.671
434.4	3.504
434.6	3.523
434.8	3.199
435.0	3.333
435.2	3.430
435.4	3.371
435.6	3.512
435.8	3.487
436.0	3.308
436.2	3.404
436.4	3.220
436.6	3.633
436.8	3.720
437.0	3.686
437.2	3.854
437.4	3.694
437.6	3.252
437.8	3.771
438.0	3.786
438.2	3.914
438.4	3.981
438.6	3.636
438.8	3.178
439.0	3.329
439.2	3.678
439.4	3.875
439.6	3.802
439.8	3.634
440.0	3.456
440.2	3.762
440.4	4.347
440.6	4.375
440.8	4.045
441.0	3.803
441.2	3.511
441.4	3.576
441.6	3.816
441.8	3.726
442.0	3.636
442.2	3.623
442.4	3.565
442.6	3.954
442.8	3.952
443.0	3.736
443.2	3.917
443.4	3.789
443.6	4.104
443.8	4.110
444.0	3.595
444.2	3.674
444.4	3.690
444.6	3.656
444.8	3.933
445.0	4.126
445.2	4.121
445.4	4.206
445.6	3.798
445.8	3.490
446.0	3.674
446.2	4.254
446.4	4.463
446.6	4.484
446.8	4.375
447.0	4.110
447.2	3.750
447.4	3.556
447.6	3.396
447.8	3.797
448.0	4.183
448.2	4.590
448.4	4.255
448.6	4.081
448.8	3.984
449.0	4.284
449.2	4.505
449.4	4.749
449.6	4.356
449.8	4.133
450.0	3.890
450.2	3.757
450.4	3.764
450.6	3.800
450.8	3.854
451.0	4.029
451.2	3.792
451.4	3.625
451.6	3.595
451.8	3.823
452.0	4.157
452.2	4.482
452.4	4.335
452.6	4.294
452.8	4.702
453.0	4.921
453.2	5.106
453.4	5.404
453.6	5.252
453.8	4.690
454.0	4.758
454.2	4.469
454.4	4.025
454.6	4.186
454.8	4.054
455.0	3.626
455.2	3.779
455.4	3.806
455.6	3.926
455.8	4.592
456.0	4.720
456.2	4.776
456.4	4.658
456.6	4.142
456.8	4.140
457.0	4.431
457.2	4.461
457.4	4.750
457.6	4.865
457.8	4.840
458.0	5.305
458.2	5.450
458.4	5.268
458.6	5.042
458.8	4.637
459.0	4.325
459.2	4.809
459.4	4.891
459.6	4.937
459.8	5.137
460.0	5.207
460.2	4.899
460.4	5.088
460.6	5.276
460.8	5.190
461.0	5.530
461.2	6.296
461.4	6.392
461.6	6.036
461.8	5.678
462.0	5.215
462.2	5.363
462.4	5.958
462.6	6.464
462.8	5.957
463.0	5.473
463.2	5.326
463.4	5.269
463.6	5.952
463.8	6.750
464.0	7.228
464.2	7.635
464.4	7.760
464.6	7.089
464.8	7.222
465.0	7.054
465.2	6.735
465.4	7.245
465.6	7.482
465.8	7.495
466.0	7.791
466.2	8.244
466.4	7.976
466.6	8.576
466.8	8.612
467.0	8.594
467.2	8.149
467.4	9.103
467.6	9.314
467.8	9.803
468.0	9.933
468.2	9.304
468.4	9.018
468.6	9.765
468.8	10.24
469.0	10.80
469.2	11.46
469.4	11.48
469.6	12.07
469.8	12.65
470.0	12.83
470.2	13.28
470.4	13.44
470.6	13.46
470.8	13.62
471.0	14.37
471.2	14.32
471.4	14.92
471.6	15.32
471.8	16.31
472.0	16.65
472.2	17.23
472.4	17.80
472.6	18.00
472.8	18.84
473.0	19.44
473.2	19.06
473.4	19.67
473.6	19.93
473.8	21.03
474.0	21.97
474.2	22.71
474.4	23.70
474.6	24.31
474.8	24.73
475.0	25.65
475.2	27.08
475.4	28.46
475.6	29.37
475.8	30.25
476.0	30.22
476.2	30.23
476.4	32.72
476.6	34.19
476.8	34.98
477.0	37.35
477.2	37.00
477.4	37.79
477.6	39.64
477.8	41.02
478.0	41.53
478.2	42.53
478.4	42.72
478.6	44.37
478.8	47.88
479.0	52.54
479.2	54.69
479.4	57.52
479.6	59.98
479.8	59.98
480.0	60.50
480.2	62.39
480.4	62.77
480.6	65.71
480.8	68.80
481.0	69.73
481.2	70.49
481.4	73.23
481.6	74.57
481.8	75.52
482.0	77.85
482.2	79.77
482.4	82.74
482.6	86.33
482.8	88.43
483.0	91.54
483.2	95.27
483.4	100.1
483.6	104.4
483.8	106.7
484.0	109.7
484.2	112.9
484.4	115.4
484.6	119.0
484.8	122.3
485.0	125.1
485.2	130.3
485.4	134.9
485.6	139.6
485.8	145.7
486.0	149.8
486.2	151.8
486.4	156.1
486.6	160.4
486.8	166.2
487.0	173.8
487.2	181.6
487.4	183.5
487.6	187.1
487.8	190.2
488.0	193.4
488.2	195.9
488.4	203.8
488.6	208.7
488.8	215.8
489.0	226.0
489.2	234.9
489.4	240.0
489.6	246.5
489.8	252.9
490.0	259.0
490.2	268.6
490.4	280.1
490.6	289.6
490.8	295.0
491.0	301.3
491.2	305.8
491.4	313.5
491.6	326.3
491.8	337.8
492.0	345.3
492.2	356.2
492.4	365.7
492.6	374.4
492.8	381.7
493.0	388.4
493.2	393.0
493.4	406.8
493.6	419.4
493.8	432.1
494.0	443.0
494.2	453.5
494.4	460.1
494.6	470.7
494.8	477.1
495.0	489.3
495.2	502.7
495.4	521.0
495.6	531.3
495.8	546.2
496.0	555.9
496.2	568.0
496.4	580.9
496.6	600.4
496.8	613.8
497.0	626.2
497.2	636.5
497.4	649.2
497.6	662.2
497.8	679.2
498.0	695.6
498.2	703.0
498.4	723.1
498.6	742.1
498.8	761.9
499.0	777.6
499.2	788.7
499.4	795.9
499.6	810.2
499.8	820.0
500.0	843.3
500.2	862.7
500.4	879.0
500.6	895.8
500.8	910.2
501.0	927.1
501.2	957.0
501.4	976.2
501.6	987.4
501.8	1002
502.0	1019
502.2	1047
502.4	1072
502.6	1093
502.8	1108
503.0	1123
503.2	1136
503.4	1147
503.6	1160
503.8	1178
504.0	1196
504.2	1223
504.4	1249
504.6	1269
504.8	1290
505.0	1306
505.2	1326
505.4	1341
505.6	1364
505.8	1385
506.0	1403
506.2	1429
506.4	1464
506.6	1477
506.8	1498
507.0	1512
507.2	1527
507.4	1552
507.6	1581
507.8	1604
508.0	1629
508.2	1645
508.4	1656
508.6	1674
508.8	1695
509.0	1727
509.2	1756
509.4	1782
509.6	1795
509.8	1805
510.0	1830
510.2	1859
510.4	1885
510.6	1914
510.8	1934
511.0	1951
511.2	1976
511.4	1996
511.6	2019
511.8	2044
512.0	2066
512.2	2084
512.4	2093
512.6	2109
512.8	2119
513.0	2143
513.2	2168
513.4	2193
513.6	2215
513.8	2240
514.0	2258
514.2	2274
514.4	2287
514.6	2305
514.8	2328
515.0	2349
515.2	2377
515.4	2391
515.6	2412
515.8	2426
516.0	2451
516.2	2470
516.4	2488
516.6	2511
516.8	2533
517.0	2535
517.2	2558
517.4	2577
517.6	2601
517.8	2623
518.0	2638
518.2	2653
518.4	2676
518.6	2694
518.8	2720
519.0	2745
519.2	2766
519.4	2790
519.6	2806
519.8	2814
520.0	2828
520.2	2848
520.4	2860
520.6	2880
520.8	2894
521.0	2907
521.2	2918
521.4	2927
521.6	2931
521.8	2950
522.0	2964
522.2	2974
522.4	2986
522.6	3004
522.8	3017
523.0	3034
523.2	3055
523.4	3074
523.6	3088
523.8	3113
524.0	3124
524.2	3127
524.4	3140
524.6	3158
524.8	3165
525.0	3173
525.2	3180
525.4	3184
525.6	3204
525.8	3226
526.0	3239
526.2	3242
526.4	3257
526.6	3252
526.8	3267
527.0	3283
527.2	3299
527.4	3316
527.6	3330
527.8	3326
528.0	3326
528.2	3342
528.4	3351
528.6	3367
528.8	3380
529.0	3378
529.2	3377
529.4	3389
529.6	3395
529.8	3411
530.0	3436
530.2	3436
530.4	3443
530.6	3446
530.8	3445
531.0	3450
531.2	3460
531.4	3467
531.6	3470
531.8	3482
532.0	3479
532.2	3482
532.4	3483
532.6	3496
532.8	3495
533.0	3498
533.2	3498
533.4	3494
533.6	3504
533.8	3522
534.0	3526
534.2	3533
534.4	3528
534.6	3518
534.8	3520
535.0	3528
535.2	3525
535.4	3532
535.6	3531
535.8	3533
536.0	3540
536.2	3546
536.4	3538
536.6	3536
536.8	3540
537.0	3540
537.2	3554
537.4	3554
537.6	3550
537.8	3546
538.0	3552
538.2	3557
538.4	3564
538.6	3557
538.8	3549
539.0	3546
539.2	3552
539.4	3557
539.6	3549
539.8	3547
540.0	3549
540.2	3559
540.4	3569
540.6	3565
540.8	3558
541.0	3552
541.2	3550
541.4	3546
541.6	3544
541.8	3536
542.0	3536
542.2	3535
542.4	3542
542.6	3541
542.8	3541
543.0	3535
543.2	3532
543.4	3528
543.6	3525
543.8	3524
544.0	3533
544.2	3536
544.4	3537
544.6	3527
544.8	3515
545.0	3504
545.2	3507
545.4	3512
545.6	3503
545.8	3492
546.0	3472
546.2	3462
546.4	3462
546.6	3457
546.8	3461
547.0	3459
547.2	3451
547.4	3451
547.6	3448
547.8	3444
548.0	3455
548.2	3443
548.4	3435
548.6	3429
548.8	3420
549.0	3423
549.2	3420
549.4	3404
549.6	3392
549.8	3382
550.0	3382
550.2	3396
550.4	3394
550.6	3384
550.8	3378
551.0	3355
551.2	3347
551.4	3350
551.6	3342
551.8	3332
552.0	3331
552.2	3314
552.4	3309
552.6	3319
552.8	3317
553.0	3311
553.2	3311
553.4	3292
553.6	3280
553.8	3258
554.0	3249
554.2	3253
554.4	3269
554.6	3267
554.8	3263
555.0	3221
555.2	3212
555.4	3216
555.6	3227
555.8	3226
556.0	3214
556.2	3183
556.4	3171
556.6	3164
556.8	3154
557.0	3140
557.2	3130
557.4	3119
557.6	3121
557.8	3128
558.0	3129
558.2	3129
558.4	3136
558.6	3121
558.8	3108
559.0	3094
559.2	3083
559.4	3082
559.6	3080
559.8	3066
560.0	3056
560.2	3043
560.4	3025
560.6	3017
560.8	2995
561.0	2978
561.2	2980
561.4	2990
561.6	2991
561.8	2986
562.0	2965
562.2	2950
562.4	2933
562.6	2931
562.8	2920
563.0	2915
563.2	2908
563.4	2911
563.6	2898
563.8	2890
564.0	2874
564.2	2874
564.4	2870
564.6	2865
564.8	2865
565.0	2841
565.2	2825
565.4	2824
565.6	2825
565.8	2822
566.0	2827
566.2	2809
566.4	2790
566.6	2773
566.8	2755
567.0	2749
567.2	2758
567.4	2757
567.6	2748
567.8	2739
568.0	2728
568.2	2717
568.4	2708
568.6	2694
568.8	2689
569.0	2677
569.2	2670
569.4	2660
569.6	2646
569.8	2647
570.0	2651
570.2	2636
570.4	2622
570.6	2610
570.8	2591
571.0	2584
571.2	2566
571.4	2552
571.6	2539
571.8	2540
572.0	2547
572.2	2551
572.4	2543
572.6	2527
572.8	2512
573.0	2499
573.2	2494
573.4	2488
573.6	2483
573.8	2469
574.0	2468
574.2	2448
574.4	2432
574.6	2420
574.8	2406
575.0	2406
575.2	2411
575.4	2411
575.6	2404
575.8	2396
576.0	2380
576.2	2375
576.4	2365
576.6	2356
576.8	2336
577.0	2326
577.2	2312
577.4	2310
577.6	2313
577.8	2304
578.0	2291
578.2	2283
578.4	2270
578.6	2265
578.8	2254
579.0	2244
579.2	2243
579.4	2243
579.6	2232
579.8	2218
580.0	2194
580.2	2193
580.4	2192
580.6	2194
580.8	2188
581.0	2173
581.2	2163
581.4	2159
581.6	2145
581.8	2142
582.0	2128
582.2	2109
582.4	2105
582.6	2088
582.8	2076
583.0	2080
583.2	2071
583.4	2068
583.6	2059
583.8	2049
584.0	2040
584.2	2033
584.4	2022
584.6	2021
584.8	2012
585.0	2014
585.2	2004
585.4	1989
585.6	1975
585.8	1976
586.0	1969
586.2	1961
586.4	1951
586.6	1942
586.8	1932
587.0	1926
587.2	1914
587.4	1902
587.6	1896
587.8	1888
588.0	1885
588.2	1875
588.4	1865
588.6	1864
588.8	1857
589.0	1839
589.2	1836
589.4	1834
589.6	1825
589.8	1814
590.0	1808
590.2	1790
590.4	1783
590.6	1783
590.8	1781
591.0	1771
591.2	1764
591.4	1751
591.6	1741
591.8	1727
592.0	1729
592.2	1727
592.4	1723
592.6	1722
592.8	1713
593.0	1688
593.2	1678
593.4	1665
593.6	1660
593.8	1660
594.0	1655
594.2	1638
594.4	1638
594.6	1639
594.8	1634
595.0	1629
595.2	1626
595.4	1608
595.6	1599
595.8	1592
596.0	1585
596.2	1574
596.4	1571
596.6	1569
596.8	1558
597.0	1555
597.2	1545
597.4	1531
597.6	1526
597.8	1526
598.0	1518
598.2	1514
598.4	1504
598.6	1494
598.8	1481
599.0	1469
599.2	1462
599.4	1463
599.6	1460
599.8	1459
600.0	1449
600.2	1434
600.4	1423
600.6	1423
600.8	1412
601.0	1415
601.2	1411
601.4	1401
601.6	1396
601.8	1397
602.0	1388
602.2	1386
602.4	1368
602.6	1350
602.8	1337
603.0	1331
603.2	1334
603.4	1340
603.6	1330
603.8	1325
604.0	1313
604.2	1305
604.4	1296
604.6	1288
604.8	1277
605.0	1268
605.2	1261
605.4	1268
605.6	1268
605.8	1271
606.0	1258
606.2	1242
606.4	1226
606.6	1214
606.8	1209
607.0	1212
607.2	1210
607.4	1212
607.6	1213
607.8	1206
608.0	1196
608.2	1185
608.4	1172
608.6	1158
608.8	1152
609.0	1155
609.2	1154
609.4	1149
609.6	1148
609.8	1135
610.0	1132
610.2	1127
610.4	1126
610.6	1124
610.8	1116
611.0	1106
611.2	1101
611.4	1091
611.6	1089
611.8	1087
612.0	1082
612.2	1074
612.4	1067
612.6	1056
612.8	1047
613.0	1045
613.2	1046
613.4	1042
613.6	1041
613.8	1029
614.0	1023
614.2	1022
614.4	1014
614.6	1012
614.8	1007
615.0	999.0
615.2	993.0
615.4	991.4
615.6	979.1
615.8	973.3
616.0	969.3
616.2	963.4
616.4	953.7
616.6	946.2
616.8	941.0
617.0	939.5
617.2	941.1
617.4	938.5
617.6	933.5
617.8	926.0
618.0	920.7
618.2	918.1
618.4	913.7
618.6	907.5
618.8	899.8
619.0	894.1
619.2	892.3
619.4	890.4
619.6	892.7
619.8	887.4
620.0	876.2
620.2	868.1
620.4	857.2
620.6	847.6
620.8	850.5
621.0	850.8
621.2	853.8
621.4	849.0
621.6	839.2
621.8	825.8
622.0	817.1
622.2	815.9
622.4	818.1
622.6	810.3
622.8	803.1
623.0	794.0
623.2	784.1
623.4	787.2
623.6	788.7
623.8	783.5
624.0	774.0
624.2	768.8
624.4	763.3
624.6	767.4
624.8	767.3
625.0	764.0
625.2	757.9
625.4	755.9
625.6	750.6
625.8	749.1
626.0	743.6
626.2	735.9
626.4	724.2
626.6	719.5
626.8	714.0
627.0	715.6
627.2	716.8
627.4	713.4
627.6	706.1
627.8	701.3
628.0	695.9
628.2	691.7
628.4	692.6
628.6	685.6
628.8	680.7
629.0	683.9
629.2	680.9
629.4	680.8
629.6	674.9
629.8	661.4
630.0	650.8
630.2	645.6
630.4	644.1
630.6	649.8
630.8	650.7
631.0	644.9
631.2	639.4
631.4	629.2
631.6	625.9
631.8	621.6
632.0	621.0
632.2	614.8
632.4	612.1
632.6	608.9
632.8	606.0
633.0	600.3
633.2	599.3
633.4	595.8
633.6	593.0
633.8	591.9
634.0	584.5
634.2	582.3
634.4	578.8
634.6	573.2
634.8	569.5
635.0	569.5
635.2	569.0
635.4	573.5
635.6	569.7
635.8	564.1
636.0	556.9
636.2	551.4
636.4	545.6
636.6	541.8
636.8	539.4
637.0	535.5
637.2	532.2
637.4	529.1
637.6	527.8
637.8	526.5
638.0	527.4
638.2	527.0
638.4	522.8
638.6	515.1
638.8	511.9
639.0	512.7
639.2	510.5
639.4	510.4
639.6	501.5
639.8	493.2
640.0	485.1
640.2	488.5
640.4	488.0
640.6	491.3
640.8	486.5
641.0	483.4
641.2	476.5
641.4	474.9
641.6	472.6
641.8	467.6
642.0	460.0
642.2	454.7
642.4	454.5
642.6	455.9
642.8	452.6
643.0	447.9
643.2	443.9
643.4	445.5
643.6	446.4
643.8	446.3
644.0	440.6
644.2	437.9
644.4	434.3
644.6	430.4
644.8	425.0
645.0	422.3
645.2	423.3
645.4	425.6
645.6	429.4
645.8	428.8
646.0	424.8
646.2	418.0
646.4	409.2
646.6	401.3
646.8	395.9
647.0	399.4
647.2	399.9
647.4	397.8
647.6	394.2
647.8	391.1
648.0	387.7
648.2	385.2
648.4	381.7
648.6	382.3
648.8	381.8
649.0	379.4
649.2	376.5
649.4	368.4
649.6	363.7
649.8	366.5
650.0	363.1
650.2	364.1
650.4	361.0
650.6	358.6
650.8	358.9
651.0	356.9
651.2	352.1
651.4	354.8
651.6	353.6
651.8	349.2
652.0	344.9
652.2	336.5
652.4	330.0
652.6	329.7
652.8	334.7
653.0	334.5
653.2	333.6
653.4	332.7
653.6	328.8
653.8	324.2
654.0	323.1
654.2	317.8
654.4	317.0
654.6	313.8
654.8	313.1
655.0	310.9
655.2	311.5
655.4	310.9
655.6	314.1
655.8	312.0
656.0	308.5
656.2	305.4
656.4	301.2
656.6	297.6
656.8	297.7
657.0	301.7
657.2	298.8
657.4	299.0
657.6	294.7
657.8	287.3
658.0	284.4
658.2	285.2
658.4	281.7
658.6	279.2
658.8	279.9
659.0	276.1
659.2	276.5
659.4	274.8
659.6	273.6
659.8	271.2
660.0	269.8
660.2	267.0
660.4	268.3
660.6	266.6
660.8	265.4
661.0	260.8
661.2	258.7
661.4	253.8
661.6	255.2
661.8	255.2
662.0	255.1
662.2	252.2
662.4	252.4
662.6	248.4
662.8	246.7
663.0	244.6
663.2	242.3
663.4	242.2
663.6	242.8
663.8	244.7
664.0	243.0
664.2	239.4
664.4	235.3
664.6	232.9
664.8	231.4
665.0	232.7
665.2	233.4
665.4	232.9
665.6	232.7
665.8	230.5
666.0	228.3
666.2	224.6
666.4	221.8
666.6	218.8
666.8	219.4
667.0	217.9
667.2	217.0
667.4	213.2
667.6	211.2
667.8	211.3
668.0	214.1
668.2	207.9
668.4	204.2
668.6	201.6
668.8	202.6
669.0	204.6
669.2	204.1
669.4	199.2
669.6	197.3
669.8	196.6
670.0	202.5
670.2	202.7
670.4	196.5
670.6	193.1
670.8	188.5
671.0	186.6
671.2	192.0
671.4	191.9
671.6	189.4
671.8	189.9
672.0	185.4
672.2	185.9
672.4	187.6
672.6	185.4
672.8	182.3
673.0	181.6
673.2	179.1
673.4	180.2
673.6	178.8
673.8	175.5
674.0	174.5
674.2	173.3
674.4	173.0
674.6	173.8
674.8	171.4
675.0	167.1
675.2	164.8
675.4	161.7
675.6	159.9
675.8	161.1
676.0	161.2
676.2	163.1
676.4	162.0
676.6	162.0
676.8	160.8
677.0	157.1
677.2	152.4
677.4	154.8
677.6	156.0
677.8	159.4
678.0	160.1
678.2	156.6
678.4	150.9
678.6	148.5
678.8	147.5
679.0	150.5
679.2	151.6
679.4	150.9
679.6	148.8
679.8	145.2
680.0	144.0
680.2	144.0
680.4	143.7
680.6	143.8
680.8	143.3
681.0	142.1
681.2	143.0
681.4	142.3
681.6	142.2
681.8	142.3
682.0	142.3
682.2	140.3
682.4	137.9
682.6	134.9
682.8	135.1
683.0	134.9
683.2	137.2
683.4	137.2
683.6	137.5
683.8	134.7
684.0	132.6
684.2	129.1
684.4	128.3
684.6	128.2
684.8	126.5
685.0	125.3
685.2	123.9
685.4	124.8
685.6	126.8
685.8	128.5
686.0	126.7
686.2	126.2
686.4	124.0
686.6	122.5
686.8	120.8
687.0	120.9
687.2	122.3
687.4	121.7
687.6	121.6
687.8	121.0
688.0	121.3
688.2	118.3
688.4	118.2
688.6	116.2
688.8	116.1
689.0	115.1
689.2	115.7
689.4	110.9
689.6	111.9
689.8	111.8
690.0	112.3
690.2	110.5
690.4	108.0
690.6	105.3
690.8	105.7
691.0	104.5
691.2	106.6
691.4	108.6
691.6	107.7
691.8	108.0
692.0	108.7
692.2	107.2
692.4	106.6
692.6	106.9
692.8	106.2
693.0	105.5
693.2	105.7
693.4	106.4
693.6	103.8
693.8	102.5
694.0	101.0
694.2	100.3
694.4	100.1
694.6	102.0
694.8	100.7
695.0	100.4
695.2	99.59
695.4	99.65
695.6	98.90
695.8	98.28
696.0	97.53
696.2	97.14
696.4	97.93
696.6	98.23
696.8	97.10
697.0	96.55
697.2	96.31
697.4	95.34
697.6	94.40
697.8	92.82
698.0	91.94
698.2	93.07
698.4	93.06
698.6	92.11
698.8	90.36
699.0	87.83
699.2	89.15
699.4	90.23
699.6	89.65
699.8	89.08
700.0	87.70
700.2	87.00
700.4	88.55
700.6	88.52
700.8	88.26
701.0	87.01
701.2	85.61
701.4	84.87
701.6	83.32
701.8	83.46
702.0	83.38
702.2	82.63
702.4	84.13
702.6	84.26
702.8	84.56
703.0	84.71
703.2	84.30
703.4	83.22
703.6	83.41
703.8	82.43
704.0	82.98
704.2	82.54
704.4	81.23
704.6	79.71
704.8	79.46
705.0	79.04
705.2	77.57
705.4	78.12
705.6	78.92
705.8	79.74
706.0	81.22
706.2	81.73
706.4	78.24
706.6	76.85
706.8	77.39
707.0	76.54
707.2	77.51
707.4	79.41
707.6	78.93
707.8	76.78
708.0	73.60
708.2	72.40
708.4	73.27
708.6	71.91
708.8	71.80
709.0	71.94
709.2	72.83
709.4	73.75
709.6	75.12
709.8	70.87
710.0	68.62
710.2	67.86
710.4	69.80
710.6	70.36
710.8	71.36
711.0	70.02
711.2	69.50
711.4	67.29
711.6	65.84
711.8	66.00
712.0	65.87
712.2	66.76
712.4	68.60
712.6	67.66
712.8	66.60
713.0	66.92
713.2	67.56
713.4	67.03
713.6	65.79
713.8	64.74
714.0	62.62
714.2	63.53
714.4	63.88
714.6	62.79
714.8	61.74
715.0	62.95
715.2	62.14
715.4	63.02
715.6	62.58
715.8	61.30
716.0	60.26
716.2	60.89
716.4	62.14
716.6	62.46
716.8	63.10
717.0	62.82
717.2	61.62
717.4	59.77
717.6	59.52
717.8	59.41
718.0	59.73
718.2	61.31
718.4	60.53
718.6	57.90
718.8	57.33
719.0	57.54
719.2	56.57
719.4	56.62
719.6	57.14
719.8	57.83
720.0	57.67
720.2	56.65
720.4	55.19
720.6	53.71
720.8	54.54
721.0	55.04
721.2	53.13
721.4	52.32
721.6	51.77
721.8	52.27
722.0	53.61
722.2	52.66
722.4	51.05
722.6	49.87
722.8	47.82
723.0	48.09
723.2	48.50
723.4	48.94
723.6	49.30
723.8	49.86
724.0	49.63
724.2	49.81
724.4	50.33
724.6	51.58
724.8	50.92
725.0	50.96
725.2	49.96
725.4	49.02
725.6	47.68
725.8	46.91
726.0	45.30
726.2	46.30
726.4	46.09
726.6	46.29
726.8	45.44
727.0	45.12
727.2	44.32
727.4	44.81
727.6	44.74
727.8	43.73
728.0	43.55
728.2	43.41
728.4	43.84
728.6	43.70
728.8	44.10
729.0	42.10
729.2	41.97
729.4	42.40
729.6	43.30
729.8	43.23
730.0	43.43
730.2	42.08
730.4	41.59
730.6	41.02
730.8	40.63
731.0	39.99
731.2	40.09
731.4	38.58
731.6	37.83
731.8	37.52
732.0	37.75
732.2	37.44
732.4	38.21
732.6	37.49
732.8	37.38
733.0	38.14
733.2	38.57
733.4	37.20
733.6	36.49
733.8	35.87
734.0	35.51
734.2	36.73
734.4	37.50
734.6	35.85
734.8	35.20
735.0	35.74
735.2	37.00
735.4	38.16
735.6	39.03
735.8	37.56
736.0	35.97
736.2	34.97
736.4	34.01
736.6	33.66
736.8	33.91
737.0	34.53
737.2	34.94
737.4	35.07
737.6	33.37
737.8	32.20
738.0	30.43
738.2	30.24
738.4	30.85
738.6	31.53
738.8	32.54
739.0	33.38
739.2	32.61
739.4	32.05
739.6	31.36
739.8	31.47
740.0	32.45
740.2	31.90
740.4	30.96
740.6	30.21
740.8	30.21
741.0	31.07
741.2	32.82
741.4	32.88
741.6	32.98
741.8	31.30
742.0	31.32
742.2	30.05
742.4	30.42
742.6	29.37
742.8	28.83
743.0	27.60
743.2	28.38
743.4	28.20
743.6	28.83
743.8	28.61
744.0	27.86
744.2	28.18
744.4	29.41
744.6	28.75
744.8	28.20
745.0	27.15
745.2	25.36
745.4	25.57
745.6	26.96
745.8	26.77
746.0	26.07
746.2	26.05
746.4	26.80
746.6	27.99
746.8	28.65
747.0	28.06
747.2	26.11
747.4	25.85
747.6	26.34
747.8	27.13
748.0	26.83
748.2	26.34
748.4	25.56
748.6	25.33
748.8	25.51
749.0	26.31
749.2	26.29
749.4	26.37
749.6	25.14
749.8	22.75
750.0	21.47
750.2	21.63
750.4	22.69
750.6	23.83
750.8	24.96
751.0	24.37
751.2	24.52
751.4	24.19
751.6	23.66
751.8	23.76
752.0	23.90
752.2	23.87
752.4	23.46
752.6	22.26
752.8	20.91
753.0	21.54
753.2	21.69
753.4	22.81
753.6	23.28
753.8	23.17
754.0	22.60
754.2	22.37
754.4	22.65
754.6	22.27
754.8	22.70
755.0	22.56
755.2	22.27
755.4	22.14
755.6	21.83
755.8	21.42
756.0	21.31
756.2	21.66
756.4	21.75
756.6	22.19
756.8	21.26
757.0	20.88
757.2	20.89
757.4	21.46
757.6	21.27
757.8	21.86
758.0	21.18
758.2	19.84
758.4	19.82
758.6	19.70
758.8	19.02
759.0	19.00
759.2	18.61
759.4	17.98
759.6	18.84
759.8	19.91
760.0	19.16
760.2	19.29
760.4	18.66
760.6	18.04
760.8	19.42
761.0	20.17
761.2	19.23
761.4	19.27
761.6	18.19
761.8	17.84
762.0	18.64
762.2	18.31
762.4	18.14
762.6	17.69
762.8	16.05
763.0	16.33
763.2	16.93
763.4	17.31
763.6	17.94
763.8	17.64
764.0	16.67
764.2	16.78
764.4	17.07
764.6	17.32
764.8	16.81
765.0	16.64
765.2	17.02
765.4	17.21
765.6	16.87
765.8	16.50
766.0	16.77
766.2	17.65
766.4	17.71
766.6	17.41
766.8	16.24
767.0	15.92
767.2	15.53
767.4	15.27
767.6	14.82
767.8	14.79
768.0	15.79
768.2	16.92
768.4	16.40
768.6	15.60
768.8	15.51
769.0	15.25
769.2	15.80
769.4	15.93
769.6	15.38
769.8	14.83
770.0	15.39
770.2	15.50
770.4	15.95
770.6	15.68
770.8	14.55
771.0	14.03
771.2	13.48
771.4	13.25
771.6	13.47
771.8	13.44
772.0	13.30
772.2	14.06
772.4	13.82
772.6	14.46
772.8	15.15
773.0	15.31
773.2	14.49
773.4	13.53
773.6	11.86
773.8	11.40
774.0	12.00
774.2	12.76
774.4	12.71
774.6	12.45
774.8	11.95
775.0	11.78
775.2	12.56
775.4	12.97
775.6	13.24
775.8	12.99
776.0	12.53
776.2	11.81
776.4	11.79
776.6	12.13
776.8	12.24
777.0	12.83
777.2	13.12
777.4	13.32
777.6	13.07
777.8	12.63
778.0	11.56
778.2	11.10
778.4	11.51
778.6	12.29
778.8	12.53
779.0	12.54
779.2	12.33
779.4	12.51
779.6	13.19
779.8	12.82
780.0	11.86
780.2	11.56
780.4	10.80
780.6	11.45
780.8	11.65
781.0	10.96
781.2	10.72
781.4	11.85
781.6	12.20
781.8	12.75
782.0	13.28
782.2	12.24
782.4	12.61
782.6	12.41
782.8	11.89
783.0	11.52
783.2	11.71
783.4	11.30
783.6	12.22
783.8	11.90
784.0	11.78
784.2	12.00
784.4	12.26
784.6	12.61
784.8	12.88
785.0	12.58
785.2	11.71
785.4	11.46
785.6	10.58
785.8	10.81
786.0	11.21
786.2	11.73
786.4	11.82
786.6	12.26
786.8	11.19
787.0	11.12
787.2	10.51
787.4	10.66
787.6	11.44
787.8	12.10
788.0	11.67
788.2	11.58
788.4	10.46
788.6	9.886
788.8	10.63
789.0	10.98
789.2	11.38
789.4	11.85
789.6	11.46
789.8	10.71
790.0	10.49
790.2	10.35
790.4	10.49
790.6	11.41
790.8	11.59
791.0	11.53
791.2	10.92
791.4	10.87
791.6	10.82
791.8	11.91
792.0	11.83
792.2	11.80
792.4	11.36
792.6	11.67
792.8	11.26
793.0	11.22
793.2	11.21
793.4	10.78
793.6	11.17
793.8	11.53
794.0	11.47
794.2	11.18
794.4	11.45
794.6	11.25
794.8	11.83
795.0	11.27
795.2	10.98
795.4	10.33
795.6	10.26
795.8	10.76
796.0	11.41
796.2	11.59
796.4	12.31
796.6	12.34
796.8	12.51
797.0	12.09
797.2	11.37
797.4	11.22
797.6	11.41
797.8	10.85
798.0	11.02
798.2	10.92
798.4	10.75
798.6	10.66
798.8	10.67
799.0	9.966
799.2	10.56
799.4	11.44
799.6	11.33
799.8	11.13
800.0	10.60
800.2	9.589
800.4	10.11
800.6	10.64
800.8	10.90
801.0	12.07
801.2	12.27
801.4	12.21
801.6	12.13
801.8	10.90
802.0	9.836
802.2	9.618
802.4	9.509
802.6	10.36
802.8	11.12
803.0	11.37
803.2	11.28
803.4	10.95
803.6	10.39
803.8	10.43
804.0	10.60
804.2	11.13
804.4	11.57
804.6	11.85
804.8	11.34
805.0	11.02
805.2	10.72
805.4	10.59
805.6	10.25
805.8	9.878
806.0	9.676
806.2	9.670
806.4	9.578
806.6	9.662
806.8	10.16
807.0	10.33
807.2	10.43
807.4	10.37
807.6	10.57
807.8	10.73
808.0	11.05
808.2	10.65
808.4	10.40
808.6	10.33
808.8	10.49
809.0	10.29
809.2	9.678
809.4	8.831
809.6	9.023
809.8	9.330
810.0	9.587
810.2	9.795
810.4	9.877
810.6	8.854
810.8	8.690
811.0	8.669
811.2	8.343
811.4	8.619
811.6	8.860
811.8	8.316
812.0	8.267
812.2	8.301
812.4	8.662
812.6	9.114
812.8	9.188
813.0	8.845
813.2	9.050
813.4	9.762
813.6	10.01
813.8	9.579
814.0	8.925
814.2	8.217
814.4	8.446
814.6	8.470
814.8	8.179
815.0	8.237
815.2	8.626
815.4	9.028
815.6	9.481
815.8	9.285
816.0	9.468
816.2	8.755
816.4	8.551
816.6	8.215
816.8	8.206
817.0	8.686
817.2	9.162
817.4	8.885
817.6	9.044
817.8	8.610
818.0	8.616
818.2	8.708
818.4	8.733
818.6	8.970
818.8	8.808
819.0	8.924
819.2	8.997
819.4	9.428
819.6	9.427
819.8	8.814
820.0	8.526
820.2	8.516
820.4	7.851
820.6	8.262
820.8	7.806
821.0	7.028
821.2	7.612
821.4	7.990
821.6	8.829
821.8	9.503
822.0	8.971
822.2	8.459
822.4	7.796
822.6	7.329
822.8	7.488
823.0	7.655
823.2	7.608
823.4	8.013
823.6	8.256
823.8	8.698
824.0	8.574
824.2	7.911
824.4	7.370
824.6	6.870
824.8	7.099
825.0	7.665
825.2	8.341
825.4	8.316
825.6	8.302
825.8	8.227
826.0	8.118
826.2	8.050
826.4	7.893
826.6	7.494
826.8	7.474
827.0	7.906
827.2	7.901
827.4	7.881
827.6	7.609
827.8	6.977
828.0	6.672
828.2	6.205
828.4	5.747
828.6	6.020
828.8	6.550
829.0	7.054
829.2	7.101
829.4	6.445
829.6	6.556
829.8	6.660
830.0	6.348
830.2	5.774
830.4	5.702
830.6	5.649
830.8	6.673
831.0	7.242
831.2	6.946
831.4	6.063
831.6	5.810
831.8	5.581
832.0	6.015
832.2	6.479
832.4	6.520
832.6	6.434
832.8	6.293
833.0	6.160
833.2	6.490
833.4	6.797
833.6	6.403
833.8	5.946
834.0	5.398
834.2	4.711
834.4	4.732
834.6	5.126
834.8	5.470
835.0	5.857
835.2	6.024
835.4	5.446
835.6	5.314
835.8	5.413
836.0	5.319
836.2	5.098
836.4	4.636
836.6	4.570
836.8	4.640
837.0	5.172
837.2	5.239
837.4	5.032
837.6	5.267
837.8	5.580
838.0	5.064
838.2	5.047
838.4	4.838
838.6	4.607
838.8	5.324
839.0	5.413
839.2	5.146
839.4	5.212
839.6	4.993
839.8	5.096
840.0	5.111
840.2	4.987
840.4	4.948
840.6	5.239
840.8	5.185
841.0	5.356
841.2	5.077
841.4	4.964
841.6	4.740
841.8	4.379
842.0	3.949
842.2	3.451
842.4	3.527
842.6	4.125
842.8	4.640
843.0	4.821
843.2	4.568
843.4	4.507
843.6	4.645
843.8	5.009
844.0	5.063
844.2	4.522
844.4	3.989
844.6	3.618
844.8	3.261
845.0	3.638
845.2	3.952
845.4	4.154
845.6	4.562
845.8	4.297
846.0	4.279
846.2	4.567
846.4	4.644
846.6	4.689
846.8	4.372
847.0	4.083
847.2	4.172
847.4	4.511
847.6	4.254
847.8	3.987
848.0	3.909
848.2	3.868
848.4	4.241
848.6	4.524
848.8	4.373
849.0	4.088
849.2	4.023
849.4	3.611
849.6	3.604
849.8	3.738
850.0	3.979

