Sample:	'20211010A(EM)
File name:	G-NI 4.FDS
Run date:	'18:17:32, 06/19/2023
Operator:	Administrator
Comment:	'

Instrument
Model:	F-4700 FL Spectrophotometer
Serial number:	2019-001
ROM Version:	5J24010 00

Instrument parameters
Measurement type:	Wavelength scan
Scan mode:	Emission
Data mode:	Fluorescence
EX WL:	400.0 nm
EM  Start WL:	420.0 nm
EM  End WL:	800.0 nm
Scan speed:	1200 nm/min
Delay:	0.0 s
EX Slit:	10.0 nm
EM Slit:	10.0 nm
PMT Voltage:	500 V
Response:	0.002 s
Corrected spectra:	Off
Shutter control:	On

Processing performed
Savitsky-Golay smoothed
Smoothing order:	3
Number of points:	7
Number of times:	1

Peak integration
Integration method:	Rectangular
Sensitivity:	1
Threshold:	1.000

Peaks
No.	Start(nm)	Apex(nm)	End(nm)	Height(Data)	Valley(nm)	Valley(Data)
1	420.0	540.0	545.6	557.4	545.6	542.3
2	545.6	546.0	665.4	546.6	665.4	37.30
3	665.4	666.0	689.2	38.40	689.2	16.92
4	689.2	689.8	694.6	17.96	694.6	14.09
5	694.6	695.6	782.2	15.57	782.2	0.899

Data points
nm	Data
420.0	0.473
420.2	0.475
420.4	0.442
420.6	0.414
420.8	0.439
421.0	0.648
421.2	0.745
421.4	0.692
421.6	0.601
421.8	0.460
422.0	0.368
422.2	0.415
422.4	0.434
422.6	0.393
422.8	0.372
423.0	0.343
423.2	0.386
423.4	0.571
423.6	0.720
423.8	0.693
424.0	0.657
424.2	0.544
424.4	0.524
424.6	0.601
424.8	0.672
425.0	0.542
425.2	0.580
425.4	0.651
425.6	0.731
425.8	0.786
426.0	0.739
426.2	0.640
426.4	0.562
426.6	0.518
426.8	0.574
427.0	0.755
427.2	0.806
427.4	0.883
427.6	0.851
427.8	0.758
428.0	0.728
428.2	0.661
428.4	0.625
428.6	0.686
428.8	0.744
429.0	0.611
429.2	0.523
429.4	0.428
429.6	0.533
429.8	0.673
430.0	0.674
430.2	0.587
430.4	0.569
430.6	0.590
430.8	0.688
431.0	0.705
431.2	0.598
431.4	0.583
431.6	0.622
431.8	0.629
432.0	0.656
432.2	0.596
432.4	0.528
432.6	0.470
432.8	0.549
433.0	0.554
433.2	0.550
433.4	0.522
433.6	0.517
433.8	0.474
434.0	0.614
434.2	0.586
434.4	0.620
434.6	0.664
434.8	0.758
435.0	0.898
435.2	1.012
435.4	0.964
435.6	0.777
435.8	0.660
436.0	0.546
436.2	0.570
436.4	0.586
436.6	0.597
436.8	0.520
437.0	0.622
437.2	0.630
437.4	0.785
437.6	0.753
437.8	0.758
438.0	0.827
438.2	0.871
438.4	0.855
438.6	0.888
438.8	0.624
439.0	0.648
439.2	0.707
439.4	0.724
439.6	0.691
439.8	0.688
440.0	0.642
440.2	0.702
440.4	0.681
440.6	0.755
440.8	0.731
441.0	0.663
441.2	0.641
441.4	0.560
441.6	0.529
441.8	0.545
442.0	0.612
442.2	0.670
442.4	0.727
442.6	0.812
442.8	0.776
443.0	0.598
443.2	0.508
443.4	0.424
443.6	0.440
443.8	0.558
444.0	0.558
444.2	0.534
444.4	0.555
444.6	0.484
444.8	0.562
445.0	0.633
445.2	0.612
445.4	0.618
445.6	0.585
445.8	0.473
446.0	0.593
446.2	0.644
446.4	0.605
446.6	0.664
446.8	0.616
447.0	0.573
447.2	0.597
447.4	0.590
447.6	0.654
447.8	0.705
448.0	0.676
448.2	0.602
448.4	0.525
448.6	0.560
448.8	0.743
449.0	0.701
449.2	0.607
449.4	0.518
449.6	0.454
449.8	0.563
450.0	0.776
450.2	0.793
450.4	0.806
450.6	0.891
450.8	0.696
451.0	0.701
451.2	0.794
451.4	0.800
451.6	0.800
451.8	0.800
452.0	0.669
452.2	0.724
452.4	0.761
452.6	0.715
452.8	0.615
453.0	0.488
453.2	0.457
453.4	0.514
453.6	0.568
453.8	0.487
454.0	0.469
454.2	0.519
454.4	0.617
454.6	0.713
454.8	0.834
455.0	0.691
455.2	0.649
455.4	0.558
455.6	0.541
455.8	0.567
456.0	0.623
456.2	0.612
456.4	0.829
456.6	0.833
456.8	0.728
457.0	0.683
457.2	0.631
457.4	0.612
457.6	0.762
457.8	0.794
458.0	0.700
458.2	0.745
458.4	0.767
458.6	0.766
458.8	0.802
459.0	0.811
459.2	0.783
459.4	0.763
459.6	0.729
459.8	0.611
460.0	0.648
460.2	0.702
460.4	0.656
460.6	0.684
460.8	0.668
461.0	0.629
461.2	0.735
461.4	0.788
461.6	0.777
461.8	0.862
462.0	0.865
462.2	0.944
462.4	0.973
462.6	0.944
462.8	0.820
463.0	0.677
463.2	0.640
463.4	0.694
463.6	0.781
463.8	0.882
464.0	0.817
464.2	0.804
464.4	0.924
464.6	0.945
464.8	0.918
465.0	0.886
465.2	0.942
465.4	1.053
465.6	1.195
465.8	1.197
466.0	1.031
466.2	0.999
466.4	1.003
466.6	0.947
466.8	1.038
467.0	1.136
467.2	1.104
467.4	1.164
467.6	1.102
467.8	0.970
468.0	0.950
468.2	0.960
468.4	1.162
468.6	1.221
468.8	1.332
469.0	1.330
469.2	1.336
469.4	1.251
469.6	1.388
469.8	1.310
470.0	1.325
470.2	1.480
470.4	1.670
470.6	1.831
470.8	1.964
471.0	1.942
471.2	1.729
471.4	1.584
471.6	1.478
471.8	1.629
472.0	1.893
472.2	2.256
472.4	2.364
472.6	2.190
472.8	2.078
473.0	1.812
473.2	1.840
473.4	2.124
473.6	2.313
473.8	2.301
474.0	2.392
474.2	2.401
474.4	2.725
474.6	2.813
474.8	2.983
475.0	3.068
475.2	3.273
475.4	3.421
475.6	3.534
475.8	3.416
476.0	3.690
476.2	3.778
476.4	3.839
476.6	3.667
476.8	3.424
477.0	3.728
477.2	4.479
477.4	4.926
477.6	5.064
477.8	4.833
478.0	4.291
478.2	4.412
478.4	4.929
478.6	5.349
478.8	5.876
479.0	6.109
479.2	6.330
479.4	6.755
479.6	7.139
479.8	7.021
480.0	6.938
480.2	6.818
480.4	7.025
480.6	7.186
480.8	7.736
481.0	8.179
481.2	8.286
481.4	8.708
481.6	9.195
481.8	9.655
482.0	9.954
482.2	10.11
482.4	9.838
482.6	10.13
482.8	10.75
483.0	11.50
483.2	12.12
483.4	12.53
483.6	12.57
483.8	13.14
484.0	13.80
484.2	13.96
484.4	14.61
484.6	15.21
484.8	15.52
485.0	16.57
485.2	17.29
485.4	17.41
485.6	17.56
485.8	18.42
486.0	18.97
486.2	19.49
486.4	19.89
486.6	20.36
486.8	21.22
487.0	22.50
487.2	23.26
487.4	23.46
487.6	24.23
487.8	24.72
488.0	26.08
488.2	27.01
488.4	27.68
488.6	28.79
488.8	29.87
489.0	30.38
489.2	31.55
489.4	32.11
489.6	32.60
489.8	34.01
490.0	34.86
490.2	35.91
490.4	37.19
490.6	37.71
490.8	38.52
491.0	40.00
491.2	41.49
491.4	43.87
491.6	45.64
491.8	46.66
492.0	47.48
492.2	48.39
492.4	49.15
492.6	50.09
492.8	51.23
493.0	52.76
493.2	54.58
493.4	56.07
493.6	57.44
493.8	58.74
494.0	60.75
494.2	62.37
494.4	64.06
494.6	64.79
494.8	66.18
495.0	68.09
495.2	70.29
495.4	72.52
495.6	75.04
495.8	76.13
496.0	78.58
496.2	80.75
496.4	82.89
496.6	85.96
496.8	88.47
497.0	89.18
497.2	90.74
497.4	92.40
497.6	94.08
497.8	96.48
498.0	98.78
498.2	100.6
498.4	102.3
498.6	105.8
498.8	108.2
499.0	110.9
499.2	113.1
499.4	115.3
499.6	117.2
499.8	120.0
500.0	122.8
500.2	125.4
500.4	128.6
500.6	131.6
500.8	134.1
501.0	135.8
501.2	138.3
501.4	140.0
501.6	143.1
501.8	145.4
502.0	148.0
502.2	151.6
502.4	155.4
502.6	159.2
502.8	163.6
503.0	167.3
503.2	169.1
503.4	170.1
503.6	172.5
503.8	175.8
504.0	180.4
504.2	184.4
504.4	185.0
504.6	185.7
504.8	188.6
505.0	193.6
505.2	198.7
505.4	204.7
505.6	207.8
505.8	210.6
506.0	212.3
506.2	213.7
506.4	215.7
506.6	218.7
506.8	221.4
507.0	226.8
507.2	231.0
507.4	235.3
507.6	238.7
507.8	240.7
508.0	243.9
508.2	247.8
508.4	251.0
508.6	255.0
508.8	257.6
509.0	260.5
509.2	264.5
509.4	267.6
509.6	271.6
509.8	274.8
510.0	277.7
510.2	280.8
510.4	285.3
510.6	290.2
510.8	294.6
511.0	296.0
511.2	297.9
511.4	301.8
511.6	307.1
511.8	312.1
512.0	316.2
512.2	318.1
512.4	319.7
512.6	321.9
512.8	325.9
513.0	327.9
513.2	330.9
513.4	334.4
513.6	337.7
513.8	342.0
514.0	347.7
514.2	351.6
514.4	351.6
514.6	352.1
514.8	353.7
515.0	357.6
515.2	362.4
515.4	370.9
515.6	373.5
515.8	378.6
516.0	381.4
516.2	382.9
516.4	382.9
516.6	386.6
516.8	389.0
517.0	392.5
517.2	395.8
517.4	400.7
517.6	403.2
517.8	407.4
518.0	410.1
518.2	410.1
518.4	413.2
518.6	417.9
518.8	419.2
519.0	422.2
519.2	425.6
519.4	426.6
519.6	432.3
519.8	437.0
520.0	439.5
520.2	441.0
520.4	443.4
520.6	444.6
520.8	446.2
521.0	447.8
521.2	448.5
521.4	449.6
521.6	452.9
521.8	457.5
522.0	460.4
522.2	465.3
522.4	466.2
522.6	466.7
522.8	469.0
523.0	470.9
523.2	474.9
523.4	478.8
523.6	479.9
523.8	479.1
524.0	481.8
524.2	482.5
524.4	486.5
524.6	487.3
524.8	489.7
525.0	491.6
525.2	496.0
525.4	500.2
525.6	503.1
525.8	500.8
526.0	499.7
526.2	496.3
526.4	497.5
526.6	503.5
526.8	507.2
527.0	509.9
527.2	512.6
527.4	514.2
527.6	516.1
527.8	517.4
528.0	517.5
528.2	519.0
528.4	519.8
528.6	522.3
528.8	522.6
529.0	523.2
529.2	523.4
529.4	526.2
529.6	526.9
529.8	527.9
530.0	528.5
530.2	531.0
530.4	532.0
530.6	532.3
530.8	532.3
531.0	533.3
531.2	534.4
531.4	537.2
531.6	538.4
531.8	540.3
532.0	540.0
532.2	541.7
532.4	542.5
532.6	542.3
532.8	541.2
533.0	544.2
533.2	542.8
533.4	543.9
533.6	543.9
533.8	544.0
534.0	545.1
534.2	549.5
534.4	549.7
534.6	550.4
534.8	550.2
535.0	548.9
535.2	548.1
535.4	549.8
535.6	550.6
535.8	552.2
536.0	554.0
536.2	550.8
536.4	551.5
536.6	551.3
536.8	554.4
537.0	553.6
537.2	555.2
537.4	550.7
537.6	551.1
537.8	552.0
538.0	554.0
538.2	553.8
538.4	555.6
538.6	554.8
538.8	555.0
539.0	556.4
539.2	555.8
539.4	554.9
539.6	555.5
539.8	555.2
540.0	557.4
540.2	557.1
540.4	556.7
540.6	555.9
540.8	556.9
541.0	552.4
541.2	551.0
541.4	548.0
541.6	545.9
541.8	546.5
542.0	549.5
542.2	549.9
542.4	550.9
542.6	550.2
542.8	547.8
543.0	546.4
543.2	547.8
543.4	550.8
543.6	552.1
543.8	550.2
544.0	548.6
544.2	545.4
544.4	542.6
544.6	544.6
544.8	544.6
545.0	545.2
545.2	546.4
545.4	544.8
545.6	542.3
545.8	545.0
546.0	546.6
546.2	545.8
546.4	543.9
546.6	542.1
546.8	541.0
547.0	543.0
547.2	543.0
547.4	540.2
547.6	539.2
547.8	539.0
548.0	538.0
548.2	537.8
548.4	536.6
548.6	534.2
548.8	534.5
549.0	532.3
549.2	530.9
549.4	529.9
549.6	528.6
549.8	526.9
550.0	529.4
550.2	527.6
550.4	527.1
550.6	528.4
550.8	527.4
551.0	526.0
551.2	526.6
551.4	525.7
551.6	522.9
551.8	523.4
552.0	521.8
552.2	520.1
552.4	518.6
552.6	519.6
552.8	518.9
553.0	518.2
553.2	517.0
553.4	516.9
553.6	515.2
553.8	513.7
554.0	513.2
554.2	510.9
554.4	510.7
554.6	510.3
554.8	508.6
555.0	507.8
555.2	508.3
555.4	505.5
555.6	506.6
555.8	506.2
556.0	505.5
556.2	505.3
556.4	505.7
556.6	501.5
556.8	499.3
557.0	497.3
557.2	495.7
557.4	492.3
557.6	493.3
557.8	492.6
558.0	491.7
558.2	491.8
558.4	492.5
558.6	488.8
558.8	487.7
559.0	486.0
559.2	487.2
559.4	486.8
559.6	484.9
559.8	481.3
560.0	479.7
560.2	477.2
560.4	477.8
560.6	478.3
560.8	476.5
561.0	475.6
561.2	476.7
561.4	475.0
561.6	473.2
561.8	470.2
562.0	467.2
562.2	465.2
562.4	463.8
562.6	465.3
562.8	465.7
563.0	464.1
563.2	461.8
563.4	458.6
563.6	455.6
563.8	456.3
564.0	455.8
564.2	457.2
564.4	454.7
564.6	450.8
564.8	450.1
565.0	450.3
565.2	449.5
565.4	448.2
565.6	443.6
565.8	441.4
566.0	440.8
566.2	441.2
566.4	439.4
566.6	438.9
566.8	436.7
567.0	437.7
567.2	438.8
567.4	439.4
567.6	435.2
567.8	434.0
568.0	430.6
568.2	428.6
568.4	427.2
568.6	427.3
568.8	423.8
569.0	424.3
569.2	423.6
569.4	423.7
569.6	421.7
569.8	422.9
570.0	420.8
570.2	422.0
570.4	419.0
570.6	417.3
570.8	413.2
571.0	413.4
571.2	412.5
571.4	411.9
571.6	409.0
571.8	406.1
572.0	402.3
572.2	400.4
572.4	399.6
572.6	397.8
572.8	399.7
573.0	398.2
573.2	397.8
573.4	395.0
573.6	396.2
573.8	395.8
574.0	398.8
574.2	394.5
574.4	389.3
574.6	384.3
574.8	383.5
575.0	383.7
575.2	385.5
575.4	380.2
575.6	375.2
575.8	376.4
576.0	378.6
576.2	380.4
576.4	379.5
576.6	376.3
576.8	372.1
577.0	370.4
577.2	370.2
577.4	368.4
577.6	368.2
577.8	368.5
578.0	368.0
578.2	366.1
578.4	366.7
578.6	365.2
578.8	361.5
579.0	356.6
579.2	353.0
579.4	352.8
579.6	354.4
579.8	355.9
580.0	353.0
580.2	351.7
580.4	349.7
580.6	351.2
580.8	349.4
581.0	346.5
581.2	343.0
581.4	342.8
581.6	341.0
581.8	341.8
582.0	339.6
582.2	336.1
582.4	334.5
582.6	335.8
582.8	336.2
583.0	335.1
583.2	331.5
583.4	328.0
583.6	325.7
583.8	325.9
584.0	327.5
584.2	327.1
584.4	325.8
584.6	324.1
584.8	322.2
585.0	318.1
585.2	316.8
585.4	316.6
585.6	315.0
585.8	314.0
586.0	313.1
586.2	311.5
586.4	309.2
586.6	308.8
586.8	307.1
587.0	306.6
587.2	307.4
587.4	307.1
587.6	304.6
587.8	305.2
588.0	303.8
588.2	302.5
588.4	300.4
588.6	296.6
588.8	295.5
589.0	296.9
589.2	296.0
589.4	293.9
589.6	290.8
589.8	288.3
590.0	287.2
590.2	287.1
590.4	286.1
590.6	284.2
590.8	283.1
591.0	281.9
591.2	281.0
591.4	281.1
591.6	280.7
591.8	277.4
592.0	275.7
592.2	273.5
592.4	272.8
592.6	273.9
592.8	272.9
593.0	269.3
593.2	269.4
593.4	268.0
593.6	268.4
593.8	270.1
594.0	268.2
594.2	265.8
594.4	264.4
594.6	261.0
594.8	261.0
595.0	260.9
595.2	259.8
595.4	261.2
595.6	261.1
595.8	257.8
596.0	255.3
596.2	251.7
596.4	249.3
596.6	250.9
596.8	251.8
597.0	251.5
597.2	250.5
597.4	248.3
597.6	246.1
597.8	244.5
598.0	241.2
598.2	241.5
598.4	241.6
598.6	242.8
598.8	242.4
599.0	241.3
599.2	238.6
599.4	239.5
599.6	237.3
599.8	235.5
600.0	233.8
600.2	232.5
600.4	233.6
600.6	234.5
600.8	230.9
601.0	229.0
601.2	229.4
601.4	228.7
601.6	228.9
601.8	225.8
602.0	221.1
602.2	220.8
602.4	219.7
602.6	219.8
602.8	220.0
603.0	220.2
603.2	218.5
603.4	218.2
603.6	216.1
603.8	215.0
604.0	212.1
604.2	213.7
604.4	213.0
604.6	210.9
604.8	209.8
605.0	208.2
605.2	204.1
605.4	205.7
605.6	204.7
605.8	204.3
606.0	205.4
606.2	204.4
606.4	202.4
606.6	201.5
606.8	199.2
607.0	198.2
607.2	199.5
607.4	198.9
607.6	198.7
607.8	196.7
608.0	195.2
608.2	193.0
608.4	193.5
608.6	193.0
608.8	193.7
609.0	192.8
609.2	192.2
609.4	191.0
609.6	190.4
609.8	188.5
610.0	187.8
610.2	186.5
610.4	185.1
610.6	185.2
610.8	184.3
611.0	181.6
611.2	180.7
611.4	179.3
611.6	177.8
611.8	177.5
612.0	177.2
612.2	176.1
612.4	175.1
612.6	174.2
612.8	173.4
613.0	171.6
613.2	171.8
613.4	171.7
613.6	169.8
613.8	169.4
614.0	169.7
614.2	169.6
614.4	170.3
614.6	169.8
614.8	169.0
615.0	168.3
615.2	167.8
615.4	165.6
615.6	162.9
615.8	160.4
616.0	159.3
616.2	159.1
616.4	159.5
616.6	158.8
616.8	158.5
617.0	156.6
617.2	155.1
617.4	154.8
617.6	154.0
617.8	152.9
618.0	153.0
618.2	151.2
618.4	150.6
618.6	151.1
618.8	150.7
619.0	148.5
619.2	148.2
619.4	147.1
619.6	145.4
619.8	146.1
620.0	146.0
620.2	144.5
620.4	143.3
620.6	142.2
620.8	140.8
621.0	141.5
621.2	141.7
621.4	140.7
621.6	137.8
621.8	136.4
622.0	135.8
622.2	136.9
622.4	138.1
622.6	137.6
622.8	136.0
623.0	133.4
623.2	132.7
623.4	132.3
623.6	131.4
623.8	129.7
624.0	128.6
624.2	126.4
624.4	127.9
624.6	128.4
624.8	128.6
625.0	127.7
625.2	126.6
625.4	126.0
625.6	126.6
625.8	126.3
626.0	124.8
626.2	122.9
626.4	121.7
626.6	121.4
626.8	121.1
627.0	120.8
627.2	119.8
627.4	118.2
627.6	117.5
627.8	116.4
628.0	115.6
628.2	114.1
628.4	113.7
628.6	112.8
628.8	112.4
629.0	112.4
629.2	112.8
629.4	111.5
629.6	111.1
629.8	110.4
630.0	110.2
630.2	110.4
630.4	110.2
630.6	110.4
630.8	109.5
631.0	108.9
631.2	109.7
631.4	108.2
631.6	105.6
631.8	105.5
632.0	104.3
632.2	104.4
632.4	104.6
632.6	103.7
632.8	102.6
633.0	102.5
633.2	101.8
633.4	101.4
633.6	99.57
633.8	98.36
634.0	98.09
634.2	97.75
634.4	98.27
634.6	97.91
634.8	96.65
635.0	95.29
635.2	94.39
635.4	93.11
635.6	93.34
635.8	92.54
636.0	92.28
636.2	92.75
636.4	92.86
636.6	92.27
636.8	91.30
637.0	89.44
637.2	87.26
637.4	86.99
637.6	87.92
637.8	89.41
638.0	89.81
638.2	89.60
638.4	86.87
638.6	85.81
638.8	86.64
639.0	86.75
639.2	87.26
639.4	86.84
639.6	86.48
639.8	85.82
640.0	85.58
640.2	84.13
640.4	83.57
640.6	81.39
640.8	81.82
641.0	81.62
641.2	81.07
641.4	79.87
641.6	79.54
641.8	78.86
642.0	79.68
642.2	79.66
642.4	79.16
642.6	78.47
642.8	77.56
643.0	76.38
643.2	75.73
643.4	75.07
643.6	75.22
643.8	75.57
644.0	74.25
644.2	73.01
644.4	72.33
644.6	71.86
644.8	71.87
645.0	71.81
645.2	70.16
645.4	69.83
645.6	69.30
645.8	69.10
646.0	69.96
646.2	70.05
646.4	69.05
646.6	68.77
646.8	67.97
647.0	68.08
647.2	69.11
647.4	68.84
647.6	67.82
647.8	66.36
648.0	65.82
648.2	65.44
648.4	66.11
648.6	66.82
648.8	66.07
649.0	64.80
649.2	63.70
649.4	62.86
649.6	62.96
649.8	62.47
650.0	62.08
650.2	61.76
650.4	60.80
650.6	60.62
650.8	60.80
651.0	60.26
651.2	60.42
651.4	59.99
651.6	59.72
651.8	59.04
652.0	58.47
652.2	58.04
652.4	57.50
652.6	56.71
652.8	57.12
653.0	57.11
653.2	57.22
653.4	56.03
653.6	54.98
653.8	54.60
654.0	55.55
654.2	55.42
654.4	56.12
654.6	55.24
654.8	54.32
655.0	53.13
655.2	53.35
655.4	52.41
655.6	52.68
655.8	52.75
656.0	52.83
656.2	51.41
656.4	51.54
656.6	50.71
656.8	49.79
657.0	50.08
657.2	50.51
657.4	50.72
657.6	50.79
657.8	49.94
658.0	48.64
658.2	48.17
658.4	47.93
658.6	47.53
658.8	47.13
659.0	47.25
659.2	46.79
659.4	46.39
659.6	46.22
659.8	45.29
660.0	44.48
660.2	44.57
660.4	44.61
660.6	44.33
660.8	45.01
661.0	44.53
661.2	43.80
661.4	43.80
661.6	43.79
661.8	43.25
662.0	43.34
662.2	41.97
662.4	41.34
662.6	41.41
662.8	41.34
663.0	41.68
663.2	42.36
663.4	42.00
663.6	40.72
663.8	40.21
664.0	39.65
664.2	39.09
664.4	39.21
664.6	38.69
664.8	38.03
665.0	37.74
665.2	37.47
665.4	37.30
665.6	38.15
665.8	37.71
666.0	38.40
666.2	37.90
666.4	37.55
666.6	37.26
666.8	37.89
667.0	36.80
667.2	37.11
667.4	36.03
667.6	35.62
667.8	34.87
668.0	35.47
668.2	35.60
668.4	36.39
668.6	35.31
668.8	34.33
669.0	33.63
669.2	33.79
669.4	33.75
669.6	34.35
669.8	33.87
670.0	33.76
670.2	33.53
670.4	33.09
670.6	32.57
670.8	32.70
671.0	32.71
671.2	33.17
671.4	32.98
671.6	32.70
671.8	32.20
672.0	31.36
672.2	30.56
672.4	30.41
672.6	30.13
672.8	30.66
673.0	31.22
673.2	30.85
673.4	30.42
673.6	30.34
673.8	30.07
674.0	29.59
674.2	29.47
674.4	29.04
674.6	28.60
674.8	28.79
675.0	28.89
675.2	28.40
675.4	28.59
675.6	28.58
675.8	28.58
676.0	28.11
676.2	26.77
676.4	26.30
676.6	25.96
676.8	26.21
677.0	26.69
677.2	26.77
677.4	26.58
677.6	26.46
677.8	25.95
678.0	25.30
678.2	24.85
678.4	24.98
678.6	25.13
678.8	25.19
679.0	25.21
679.2	24.90
679.4	24.63
679.6	25.10
679.8	24.36
680.0	23.81
680.2	23.77
680.4	23.79
680.6	23.54
680.8	23.81
681.0	23.34
681.2	23.02
681.4	23.35
681.6	22.77
681.8	22.87
682.0	22.76
682.2	22.72
682.4	22.99
682.6	23.20
682.8	22.45
683.0	22.35
683.2	22.03
683.4	21.77
683.6	21.78
683.8	21.66
684.0	21.55
684.2	21.44
684.4	20.91
684.6	20.83
684.8	20.11
685.0	20.07
685.2	20.55
685.4	20.51
685.6	20.22
685.8	20.13
686.0	19.00
686.2	18.75
686.4	18.61
686.6	18.57
686.8	18.69
687.0	19.37
687.2	19.11
687.4	19.06
687.6	18.50
687.8	18.46
688.0	18.21
688.2	18.65
688.4	18.66
688.6	18.64
688.8	17.63
689.0	17.15
689.2	16.92
689.4	17.03
689.6	17.74
689.8	17.96
690.0	17.81
690.2	17.89
690.4	17.43
690.6	17.27
690.8	17.09
691.0	16.37
691.2	16.23
691.4	16.38
691.6	16.60
691.8	17.09
692.0	17.17
692.2	17.08
692.4	16.72
692.6	15.87
692.8	15.71
693.0	15.51
693.2	15.41
693.4	15.40
693.6	15.94
693.8	15.67
694.0	15.57
694.2	15.34
694.4	14.86
694.6	14.09
694.8	14.36
695.0	14.32
695.2	14.59
695.4	15.19
695.6	15.57
695.8	15.35
696.0	15.19
696.2	15.02
696.4	14.71
696.6	14.63
696.8	14.33
697.0	13.76
697.2	13.43
697.4	13.39
697.6	13.48
697.8	13.13
698.0	13.23
698.2	13.22
698.4	13.34
698.6	13.63
698.8	13.67
699.0	13.29
699.2	13.59
699.4	13.57
699.6	13.63
699.8	13.69
700.0	13.29
700.2	13.02
700.4	12.58
700.6	12.44
700.8	12.31
701.0	11.95
701.2	12.53
701.4	12.84
701.6	12.77
701.8	12.81
702.0	12.32
702.2	11.50
702.4	11.95
702.6	12.00
702.8	12.07
703.0	11.78
703.2	11.57
703.4	11.50
703.6	11.67
703.8	11.92
704.0	12.29
704.2	12.12
704.4	12.07
704.6	11.64
704.8	11.17
705.0	11.21
705.2	11.16
705.4	11.24
705.6	11.32
705.8	11.15
706.0	11.14
706.2	11.26
706.4	11.22
706.6	11.06
706.8	10.75
707.0	10.44
707.2	10.29
707.4	10.50
707.6	10.84
707.8	10.87
708.0	10.90
708.2	10.73
708.4	10.43
708.6	10.12
708.8	10.34
709.0	10.32
709.2	10.29
709.4	9.981
709.6	9.750
709.8	9.661
710.0	9.859
710.2	9.761
710.4	9.994
710.6	9.893
710.8	10.04
711.0	9.776
711.2	9.381
711.4	8.880
711.6	9.050
711.8	9.030
712.0	9.510
712.2	9.556
712.4	9.577
712.6	9.376
712.8	9.523
713.0	9.141
713.2	9.051
713.4	9.112
713.6	9.092
713.8	8.842
714.0	9.070
714.2	8.966
714.4	8.950
714.6	9.085
714.8	9.038
715.0	8.555
715.2	8.192
715.4	7.868
715.6	8.040
715.8	8.382
716.0	8.584
716.2	8.626
716.4	8.498
716.6	8.280
716.8	8.283
717.0	8.516
717.2	8.339
717.4	8.017
717.6	7.914
717.8	7.857
718.0	7.732
718.2	7.864
718.4	7.764
718.6	7.806
718.8	7.818
719.0	7.859
719.2	7.664
719.4	7.270
719.6	6.984
719.8	6.874
720.0	6.799
720.2	7.072
720.4	7.142
720.6	6.916
720.8	6.949
721.0	7.004
721.2	7.048
721.4	7.366
721.6	7.254
721.8	7.189
722.0	7.124
722.2	6.974
722.4	6.636
722.6	6.627
722.8	6.745
723.0	6.980
723.2	6.718
723.4	6.460
723.6	6.288
723.8	6.348
724.0	6.539
724.2	6.560
724.4	6.360
724.6	6.331
724.8	6.398
725.0	6.607
725.2	6.580
725.4	6.417
725.6	6.272
725.8	6.344
726.0	6.127
726.2	6.287
726.4	6.150
726.6	5.814
726.8	5.695
727.0	5.885
727.2	5.769
727.4	5.903
727.6	5.581
727.8	5.314
728.0	5.159
728.2	5.185
728.4	5.241
728.6	5.331
728.8	5.593
729.0	5.789
729.2	5.703
729.4	5.698
729.6	5.473
729.8	5.284
730.0	5.215
730.2	5.142
730.4	5.090
730.6	5.284
730.8	5.216
731.0	5.391
731.2	5.069
731.4	4.992
731.6	4.943
731.8	4.845
732.0	4.947
732.2	5.292
732.4	5.214
732.6	5.195
732.8	5.146
733.0	4.996
733.2	4.950
733.4	5.023
733.6	5.041
733.8	4.965
734.0	4.925
734.2	4.491
734.4	4.094
734.6	4.053
734.8	4.406
735.0	4.663
735.2	4.755
735.4	4.439
735.6	4.353
735.8	4.168
736.0	4.545
736.2	4.450
736.4	4.177
736.6	4.020
736.8	3.967
737.0	3.884
737.2	4.251
737.4	4.300
737.6	4.312
737.8	4.308
738.0	4.151
738.2	4.007
738.4	3.847
738.6	3.704
738.8	3.395
739.0	3.429
739.2	3.640
739.4	3.708
739.6	3.647
739.8	3.716
740.0	3.617
740.2	3.994
740.4	4.288
740.6	4.083
740.8	3.861
741.0	3.803
741.2	3.809
741.4	3.997
741.6	3.788
741.8	3.453
742.0	3.423
742.2	3.612
742.4	3.793
742.6	3.968
742.8	4.106
743.0	3.935
743.2	3.943
743.4	3.860
743.6	3.596
743.8	3.544
744.0	3.702
744.2	3.460
744.4	3.444
744.6	3.525
744.8	3.484
745.0	3.392
745.2	3.419
745.4	3.085
745.6	3.071
745.8	3.254
746.0	3.475
746.2	3.450
746.4	3.630
746.6	3.483
746.8	3.432
747.0	3.252
747.2	3.029
747.4	2.774
747.6	2.705
747.8	2.824
748.0	3.173
748.2	3.322
748.4	3.260
748.6	3.080
748.8	2.982
749.0	2.849
749.2	3.098
749.4	3.059
749.6	2.964
749.8	2.802
750.0	2.893
750.2	2.824
750.4	2.932
750.6	2.800
750.8	2.647
751.0	2.588
751.2	2.625
751.4	2.665
751.6	2.786
751.8	2.862
752.0	2.833
752.2	2.746
752.4	2.531
752.6	2.316
752.8	2.406
753.0	2.477
753.2	2.542
753.4	2.622
753.6	2.504
753.8	2.572
754.0	2.711
754.2	2.724
754.4	2.753
754.6	2.769
754.8	2.516
755.0	2.531
755.2	2.415
755.4	2.354
755.6	2.359
755.8	2.453
756.0	2.533
756.2	2.551
756.4	2.581
756.6	2.567
756.8	2.367
757.0	2.219
757.2	2.123
757.4	2.031
757.6	2.156
757.8	2.120
758.0	2.146
758.2	2.188
758.4	2.291
758.6	2.375
758.8	2.371
759.0	2.234
759.2	2.247
759.4	2.253
759.6	2.331
759.8	2.308
760.0	2.215
760.2	2.258
760.4	2.253
760.6	2.205
760.8	2.150
761.0	2.091
761.2	1.886
761.4	1.875
761.6	1.948
761.8	2.011
762.0	2.225
762.2	2.317
762.4	2.246
762.6	2.117
762.8	1.884
763.0	1.836
763.2	1.921
763.4	1.896
763.6	1.888
763.8	1.828
764.0	1.624
764.2	1.774
764.4	1.824
764.6	1.774
764.8	1.783
765.0	1.819
765.2	1.819
765.4	1.826
765.6	1.729
765.8	1.638
766.0	1.828
766.2	1.987
766.4	2.116
766.6	2.177
766.8	2.094
767.0	1.953
767.2	1.870
767.4	1.710
767.6	1.671
767.8	1.719
768.0	1.677
768.2	1.709
768.4	1.644
768.6	1.546
768.8	1.590
769.0	1.633
769.2	1.712
769.4	1.857
769.6	1.722
769.8	1.707
770.0	1.666
770.2	1.678
770.4	1.697
770.6	1.729
770.8	1.524
771.0	1.526
771.2	1.565
771.4	1.722
771.6	1.723
771.8	1.869
772.0	1.800
772.2	1.717
772.4	1.801
772.6	1.920
772.8	1.768
773.0	1.701
773.2	1.598
773.4	1.581
773.6	1.550
773.8	1.634
774.0	1.530
774.2	1.348
774.4	1.314
774.6	1.357
774.8	1.272
775.0	1.408
775.2	1.564
775.4	1.559
775.6	1.573
775.8	1.511
776.0	1.309
776.2	1.240
776.4	1.294
776.6	1.295
776.8	1.379
777.0	1.344
777.2	1.294
777.4	1.242
777.6	1.322
777.8	1.369
778.0	1.371
778.2	1.226
778.4	1.164
778.6	1.183
778.8	1.368
779.0	1.541
779.2	1.621
779.4	1.543
779.6	1.431
779.8	1.440
780.0	1.460
780.2	1.407
780.4	1.398
780.6	1.471
780.8	1.478
781.0	1.467
781.2	1.525
781.4	1.375
781.6	1.232
781.8	1.197
782.0	1.027
782.2	0.899
782.4	1.064
782.6	1.204
782.8	1.293
783.0	1.358
783.2	1.274
783.4	1.362
783.6	1.382
783.8	1.355
784.0	1.352
784.2	1.294
784.4	1.471
784.6	1.718
784.8	1.669
785.0	1.630
785.2	1.540
785.4	1.352
785.6	1.398
785.8	1.398
786.0	1.296
786.2	1.326
786.4	1.305
786.6	1.242
786.8	1.255
787.0	1.359
787.2	1.405
787.4	1.469
787.6	1.543
787.8	1.549
788.0	1.425
788.2	1.315
788.4	1.278
788.6	1.213
788.8	1.240
789.0	1.313
789.2	1.377
789.4	1.544
789.6	1.555
789.8	1.546
790.0	1.425
790.2	1.361
790.4	1.517
790.6	1.722
790.8	1.643
791.0	1.687
791.2	1.506
791.4	1.548
791.6	1.713
791.8	1.843
792.0	1.922
792.2	1.841
792.4	1.723
792.6	1.795
792.8	1.731
793.0	1.746
793.2	1.899
793.4	1.987
793.6	2.027
793.8	2.043
794.0	1.924
794.2	1.967
794.4	1.901
794.6	1.797
794.8	1.597
795.0	1.588
795.2	1.643
795.4	1.905
795.6	1.908
795.8	1.872
796.0	1.811
796.2	1.866
796.4	1.660
796.6	1.642
796.8	1.750
797.0	1.896
797.2	1.926
797.4	2.134
797.6	2.086
797.8	2.015
798.0	2.118
798.2	2.026
798.4	1.779
798.6	1.746
798.8	1.966
799.0	2.146
799.2	2.359
799.4	2.399
799.6	2.206
799.8	2.051
800.0	2.084

