Sample:	'20211010A(EM)
File name:	G-NI 9.FDS
Run date:	'19:01:00, 06/19/2023
Operator:	Administrator
Comment:	'

Instrument
Model:	F-4700 FL Spectrophotometer
Serial number:	2019-001
ROM Version:	5J24010 00

Instrument parameters
Measurement type:	Wavelength scan
Scan mode:	Emission
Data mode:	Fluorescence
EX WL:	400.0 nm
EM  Start WL:	420.0 nm
EM  End WL:	800.0 nm
Scan speed:	1200 nm/min
Delay:	0.0 s
EX Slit:	10.0 nm
EM Slit:	10.0 nm
PMT Voltage:	500 V
Response:	0.002 s
Corrected spectra:	Off
Shutter control:	On

Processing performed
Savitsky-Golay smoothed
Smoothing order:	3
Number of points:	7
Number of times:	1

Peak integration
Integration method:	Rectangular
Sensitivity:	1
Threshold:	1.000

Peaks
No.	Start(nm)	Apex(nm)	End(nm)	Height(Data)	Valley(nm)	Valley(Data)
1	420.0	534.0	534.6	289.5	534.6	284.8
2	534.6	538.0	538.6	291.9	538.6	286.5
3	538.6	540.2	542.6	292.1	542.6	284.3
4	542.6	544.4	545.4	287.3	545.4	282.6
5	545.4	546.2	547.0	287.0	547.0	279.5
6	547.0	547.8	558.2	282.2	558.2	251.7
7	558.2	559.0	564.6	255.7	564.6	234.4
8	564.6	565.2	577.4	236.6	577.4	187.7
9	577.4	578.2	623.8	192.0	623.8	64.81
10	623.8	624.6	674.8	65.97	674.8	14.05
11	674.8	675.4	699.8	15.22	699.8	5.923
12	699.8	701.2	774.8	6.931	774.8	0.511

Data points
nm	Data
420.0	0.327
420.2	0.422
420.4	0.406
420.6	0.328
420.8	0.262
421.0	0.153
421.2	0.220
421.4	0.319
421.6	0.412
421.8	0.429
422.0	0.371
422.2	0.347
422.4	0.316
422.6	0.373
422.8	0.459
423.0	0.474
423.2	0.381
423.4	0.336
423.6	0.294
423.8	0.236
424.0	0.333
424.2	0.397
424.4	0.369
424.6	0.353
424.8	0.404
425.0	0.342
425.2	0.378
425.4	0.367
425.6	0.338
425.8	0.313
426.0	0.349
426.2	0.431
426.4	0.437
426.6	0.484
426.8	0.607
427.0	0.636
427.2	0.599
427.4	0.577
427.6	0.406
427.8	0.371
428.0	0.453
428.2	0.432
428.4	0.493
428.6	0.514
428.8	0.390
429.0	0.353
429.2	0.440
429.4	0.399
429.6	0.537
429.8	0.546
430.0	0.479
430.2	0.412
430.4	0.509
430.6	0.512
430.8	0.527
431.0	0.443
431.2	0.380
431.4	0.302
431.6	0.338
431.8	0.347
432.0	0.352
432.2	0.348
432.4	0.370
432.6	0.374
432.8	0.420
433.0	0.423
433.2	0.369
433.4	0.308
433.6	0.345
433.8	0.276
434.0	0.338
434.2	0.461
434.4	0.489
434.6	0.590
434.8	0.574
435.0	0.372
435.2	0.276
435.4	0.312
435.6	0.331
435.8	0.524
436.0	0.534
436.2	0.504
436.4	0.502
436.6	0.494
436.8	0.453
437.0	0.435
437.2	0.375
437.4	0.311
437.6	0.288
437.8	0.246
438.0	0.270
438.2	0.296
438.4	0.351
438.6	0.388
438.8	0.432
439.0	0.394
439.2	0.336
439.4	0.369
439.6	0.347
439.8	0.343
440.0	0.346
440.2	0.278
440.4	0.233
440.6	0.293
440.8	0.325
441.0	0.397
441.2	0.414
441.4	0.437
441.6	0.444
441.8	0.524
442.0	0.486
442.2	0.424
442.4	0.312
442.6	0.315
442.8	0.303
443.0	0.346
443.2	0.374
443.4	0.452
443.6	0.507
443.8	0.639
444.0	0.559
444.2	0.441
444.4	0.298
444.6	0.223
444.8	0.205
445.0	0.314
445.2	0.235
445.4	0.312
445.6	0.321
445.8	0.384
446.0	0.439
446.2	0.468
446.4	0.326
446.6	0.271
446.8	0.284
447.0	0.462
447.2	0.557
447.4	0.605
447.6	0.563
447.8	0.473
448.0	0.377
448.2	0.399
448.4	0.299
448.6	0.194
448.8	0.177
449.0	0.202
449.2	0.210
449.4	0.292
449.6	0.303
449.8	0.381
450.0	0.459
450.2	0.517
450.4	0.506
450.6	0.541
450.8	0.424
451.0	0.394
451.2	0.410
451.4	0.454
451.6	0.441
451.8	0.502
452.0	0.431
452.2	0.396
452.4	0.311
452.6	0.289
452.8	0.321
453.0	0.422
453.2	0.411
453.4	0.451
453.6	0.384
453.8	0.251
454.0	0.310
454.2	0.433
454.4	0.472
454.6	0.494
454.8	0.535
455.0	0.404
455.2	0.362
455.4	0.362
455.6	0.354
455.8	0.340
456.0	0.364
456.2	0.378
456.4	0.413
456.6	0.363
456.8	0.314
457.0	0.287
457.2	0.250
457.4	0.304
457.6	0.387
457.8	0.386
458.0	0.344
458.2	0.430
458.4	0.490
458.6	0.490
458.8	0.425
459.0	0.438
459.2	0.347
459.4	0.455
459.6	0.432
459.8	0.392
460.0	0.293
460.2	0.383
460.4	0.375
460.6	0.444
460.8	0.413
461.0	0.441
461.2	0.431
461.4	0.445
461.6	0.426
461.8	0.406
462.0	0.408
462.2	0.475
462.4	0.549
462.6	0.566
462.8	0.490
463.0	0.545
463.2	0.544
463.4	0.552
463.6	0.644
463.8	0.673
464.0	0.581
464.2	0.651
464.4	0.578
464.6	0.476
464.8	0.560
465.0	0.550
465.2	0.508
465.4	0.501
465.6	0.535
465.8	0.533
466.0	0.626
466.2	0.616
466.4	0.610
466.6	0.521
466.8	0.612
467.0	0.679
467.2	0.759
467.4	0.756
467.6	0.729
467.8	0.669
468.0	0.641
468.2	0.662
468.4	0.714
468.6	0.738
468.8	0.680
469.0	0.834
469.2	0.815
469.4	0.826
469.6	0.760
469.8	0.773
470.0	0.708
470.2	0.851
470.4	0.828
470.6	0.816
470.8	0.799
471.0	0.873
471.2	0.907
471.4	0.977
471.6	0.988
471.8	1.000
472.0	0.943
472.2	0.865
472.4	0.754
472.6	0.884
472.8	0.955
473.0	1.078
473.2	1.213
473.4	1.309
473.6	1.285
473.8	1.357
474.0	1.264
474.2	1.138
474.4	1.212
474.6	1.220
474.8	1.269
475.0	1.376
475.2	1.524
475.4	1.574
475.6	1.559
475.8	1.645
476.0	1.715
476.2	1.778
476.4	1.952
476.6	2.010
476.8	1.934
477.0	1.960
477.2	1.986
477.4	2.064
477.6	2.275
477.8	2.302
478.0	2.288
478.2	2.231
478.4	2.405
478.6	2.660
478.8	2.711
479.0	2.872
479.2	2.910
479.4	2.885
479.6	3.166
479.8	3.282
480.0	3.097
480.2	3.195
480.4	3.276
480.6	3.375
480.8	3.832
481.0	4.078
481.2	4.260
481.4	4.301
481.6	4.179
481.8	4.368
482.0	4.756
482.2	5.058
482.4	5.254
482.6	5.053
482.8	4.552
483.0	4.713
483.2	5.157
483.4	5.900
483.6	6.076
483.8	6.269
484.0	6.316
484.2	6.717
484.4	6.899
484.6	7.146
484.8	7.217
485.0	7.453
485.2	7.786
485.4	7.944
485.6	7.795
485.8	7.740
486.0	8.383
486.2	8.804
486.4	9.163
486.6	9.384
486.8	9.734
487.0	10.17
487.2	10.89
487.4	11.31
487.6	11.11
487.8	11.38
488.0	11.40
488.2	11.95
488.4	12.69
488.6	13.66
488.8	13.69
489.0	14.04
489.2	13.80
489.4	14.18
489.6	14.90
489.8	15.87
490.0	16.62
490.2	16.84
490.4	17.19
490.6	17.56
490.8	17.88
491.0	18.40
491.2	19.21
491.4	19.49
491.6	20.08
491.8	20.71
492.0	21.77
492.2	23.12
492.4	23.80
492.6	24.58
492.8	24.76
493.0	24.84
493.2	25.68
493.4	26.41
493.6	26.80
493.8	27.93
494.0	29.32
494.2	29.59
494.4	30.39
494.6	31.12
494.8	31.71
495.0	33.28
495.2	34.94
495.4	35.18
495.6	35.29
495.8	36.03
496.0	36.42
496.2	37.68
496.4	39.02
496.6	40.05
496.8	40.72
497.0	42.36
497.2	43.58
497.4	45.39
497.6	46.93
497.8	47.95
498.0	47.55
498.2	48.49
498.4	48.92
498.6	50.57
498.8	52.70
499.0	54.22
499.2	54.52
499.4	57.03
499.6	57.66
499.8	58.60
500.0	60.20
500.2	61.14
500.4	62.22
500.6	64.55
500.8	65.77
501.0	66.38
501.2	67.37
501.4	69.43
501.6	71.23
501.8	72.83
502.0	74.31
502.2	74.95
502.4	75.89
502.6	78.18
502.8	79.65
503.0	81.41
503.2	82.89
503.4	85.11
503.6	86.84
503.8	87.76
504.0	88.76
504.2	90.84
504.4	93.04
504.6	96.59
504.8	98.59
505.0	99.06
505.2	99.20
505.4	99.88
505.6	102.1
505.8	104.2
506.0	106.1
506.2	108.0
506.4	108.5
506.6	109.1
506.8	112.1
507.0	113.9
507.2	116.6
507.4	119.6
507.6	121.1
507.8	122.7
508.0	125.3
508.2	125.9
508.4	126.3
508.6	128.2
508.8	129.2
509.0	131.0
509.2	134.0
509.4	135.3
509.6	137.1
509.8	139.2
510.0	139.7
510.2	140.5
510.4	143.0
510.6	145.7
510.8	148.9
511.0	151.5
511.2	152.9
511.4	155.0
511.6	155.9
511.8	158.0
512.0	159.7
512.2	162.4
512.4	163.7
512.6	164.7
512.8	164.3
513.0	165.4
513.2	168.0
513.4	171.8
513.6	175.1
513.8	177.7
514.0	179.8
514.2	180.6
514.4	182.7
514.6	184.7
514.8	185.7
515.0	187.0
515.2	187.8
515.4	187.4
515.6	189.2
515.8	191.6
516.0	192.7
516.2	196.3
516.4	197.8
516.6	199.8
516.8	201.6
517.0	201.9
517.2	202.2
517.4	205.4
517.6	209.1
517.8	212.8
518.0	215.3
518.2	214.9
518.4	215.6
518.6	216.2
518.8	218.2
519.0	217.8
519.2	218.0
519.4	217.6
519.6	219.2
519.8	221.7
520.0	224.3
520.2	224.8
520.4	225.6
520.6	227.1
520.8	228.9
521.0	232.1
521.2	232.9
521.4	232.1
521.6	233.3
521.8	235.5
522.0	236.6
522.2	238.9
522.4	240.4
522.6	243.3
522.8	245.8
523.0	246.8
523.2	245.8
523.4	245.4
523.6	246.5
523.8	249.2
524.0	251.8
524.2	253.5
524.4	254.3
524.6	255.5
524.8	256.0
525.0	256.9
525.2	258.1
525.4	259.2
525.6	257.5
525.8	258.2
526.0	259.4
526.2	261.2
526.4	263.4
526.6	266.3
526.8	265.3
527.0	265.5
527.2	266.9
527.4	265.8
527.6	266.0
527.8	266.7
528.0	267.2
528.2	270.2
528.4	272.9
528.6	274.0
528.8	274.0
529.0	274.0
529.2	273.9
529.4	274.9
529.6	275.1
529.8	276.1
530.0	276.5
530.2	278.0
530.4	278.4
530.6	278.3
530.8	278.2
531.0	279.1
531.2	279.9
531.4	279.1
531.6	279.8
531.8	279.5
532.0	279.7
532.2	281.4
532.4	282.5
532.6	282.5
532.8	283.8
533.0	281.4
533.2	281.5
533.4	282.9
533.6	286.2
533.8	289.1
534.0	289.5
534.2	287.9
534.4	286.5
534.6	284.8
534.8	285.0
535.0	286.4
535.2	284.9
535.4	286.5
535.6	286.6
535.8	287.0
536.0	288.8
536.2	290.1
536.4	289.5
536.6	289.9
536.8	289.1
537.0	288.0
537.2	287.1
537.4	287.2
537.6	289.8
537.8	291.4
538.0	291.9
538.2	290.0
538.4	288.3
538.6	286.5
538.8	287.0
539.0	287.6
539.2	288.9
539.4	289.1
539.6	289.9
539.8	289.0
540.0	290.2
540.2	292.1
540.4	291.2
540.6	290.2
540.8	288.4
541.0	288.2
541.2	288.7
541.4	288.6
541.6	288.9
541.8	289.6
542.0	287.6
542.2	286.1
542.4	286.3
542.6	284.3
542.8	285.6
543.0	287.6
543.2	287.1
543.4	286.0
543.6	287.0
543.8	286.5
544.0	286.1
544.2	287.0
544.4	287.3
544.6	286.2
544.8	284.9
545.0	284.4
545.2	283.7
545.4	282.6
545.6	283.3
545.8	284.0
546.0	286.3
546.2	287.0
546.4	286.3
546.6	282.5
546.8	280.3
547.0	279.5
547.2	279.8
547.4	280.5
547.6	282.0
547.8	282.2
548.0	281.5
548.2	282.2
548.4	281.2
548.6	281.4
548.8	280.3
549.0	279.3
549.2	277.4
549.4	277.7
549.6	276.8
549.8	276.1
550.0	275.5
550.2	276.9
550.4	277.7
550.6	277.0
550.8	274.9
551.0	274.2
551.2	274.5
551.4	277.3
551.6	277.8
551.8	276.4
552.0	275.6
552.2	274.0
552.4	272.8
552.6	274.4
552.8	274.1
553.0	272.6
553.2	271.6
553.4	268.7
553.6	267.6
553.8	269.8
554.0	271.4
554.2	271.4
554.4	269.9
554.6	268.7
554.8	268.3
555.0	268.2
555.2	268.1
555.4	265.9
555.6	264.7
555.8	265.8
556.0	266.3
556.2	266.5
556.4	263.6
556.6	258.9
556.8	258.1
557.0	259.3
557.2	260.4
557.4	261.0
557.6	257.6
557.8	253.6
558.0	252.2
558.2	251.7
558.4	253.1
558.6	252.7
558.8	255.0
559.0	255.7
559.2	255.1
559.4	255.3
559.6	255.4
559.8	253.6
560.0	255.1
560.2	253.5
560.4	250.3
560.6	249.1
560.8	247.6
561.0	247.3
561.2	249.5
561.4	250.4
561.6	249.2
561.8	246.7
562.0	244.3
562.2	243.5
562.4	243.4
562.6	244.7
562.8	244.1
563.0	242.8
563.2	243.1
563.4	242.9
563.6	240.5
563.8	239.7
564.0	237.5
564.2	235.3
564.4	234.4
564.6	234.4
564.8	234.7
565.0	235.7
565.2	236.6
565.4	235.7
565.6	234.9
565.8	235.0
566.0	233.9
566.2	232.6
566.4	231.3
566.6	229.0
566.8	228.4
567.0	228.8
567.2	226.4
567.4	225.4
567.6	225.3
567.8	223.4
568.0	224.3
568.2	224.8
568.4	222.7
568.6	223.3
568.8	224.1
569.0	222.3
569.2	223.8
569.4	223.4
569.6	222.7
569.8	220.9
570.0	219.6
570.2	216.7
570.4	216.2
570.6	216.5
570.8	217.6
571.0	216.4
571.2	217.0
571.4	216.5
571.6	215.2
571.8	214.5
572.0	212.2
572.2	210.7
572.4	210.1
572.6	211.0
572.8	211.5
573.0	211.1
573.2	209.2
573.4	207.7
573.6	206.0
573.8	204.4
574.0	204.3
574.2	203.9
574.4	203.0
574.6	202.4
574.8	202.4
575.0	202.5
575.2	201.8
575.4	201.8
575.6	199.4
575.8	196.6
576.0	196.2
576.2	195.5
576.4	195.0
576.6	195.1
576.8	192.2
577.0	189.3
577.2	189.1
577.4	187.7
577.6	188.8
577.8	190.0
578.0	190.8
578.2	192.0
578.4	191.6
578.6	189.4
578.8	186.6
579.0	184.1
579.2	183.7
579.4	184.8
579.6	185.4
579.8	184.8
580.0	184.6
580.2	182.5
580.4	181.2
580.6	180.8
580.8	180.4
581.0	178.4
581.2	178.2
581.4	177.6
581.6	179.0
581.8	178.1
582.0	176.5
582.2	174.3
582.4	172.7
582.6	173.0
582.8	174.5
583.0	174.8
583.2	172.9
583.4	172.8
583.6	171.8
583.8	170.7
584.0	170.4
584.2	169.3
584.4	166.4
584.6	166.4
584.8	166.5
585.0	166.6
585.2	167.3
585.4	165.2
585.6	162.9
585.8	161.8
586.0	162.6
586.2	163.0
586.4	163.1
586.6	160.3
586.8	158.4
587.0	156.6
587.2	157.1
587.4	158.6
587.6	158.4
587.8	156.5
588.0	154.8
588.2	153.6
588.4	154.5
588.6	155.3
588.8	156.4
589.0	154.5
589.2	152.2
589.4	150.1
589.6	149.1
589.8	147.9
590.0	150.1
590.2	149.4
590.4	149.9
590.6	148.4
590.8	146.1
591.0	145.5
591.2	146.5
591.4	146.9
591.6	148.0
591.8	147.0
592.0	144.0
592.2	143.1
592.4	142.4
592.6	141.7
592.8	141.9
593.0	141.3
593.2	140.1
593.4	139.0
593.6	137.7
593.8	136.7
594.0	136.0
594.2	135.5
594.4	135.4
594.6	136.1
594.8	135.6
595.0	136.3
595.2	134.9
595.4	133.6
595.6	132.6
595.8	133.2
596.0	132.3
596.2	132.1
596.4	130.2
596.6	128.8
596.8	127.6
597.0	128.5
597.2	127.7
597.4	127.6
597.6	126.9
597.8	125.6
598.0	125.5
598.2	126.4
598.4	126.0
598.6	125.2
598.8	124.3
599.0	122.2
599.2	122.8
599.4	123.3
599.6	123.0
599.8	122.0
600.0	121.5
600.2	120.7
600.4	120.3
600.6	119.7
600.8	118.7
601.0	117.3
601.2	116.7
601.4	115.7
601.6	115.0
601.8	115.4
602.0	116.1
602.2	115.8
602.4	115.2
602.6	113.3
602.8	112.2
603.0	112.1
603.2	112.5
603.4	111.8
603.6	111.3
603.8	109.6
604.0	108.9
604.2	108.4
604.4	108.6
604.6	108.3
604.8	108.6
605.0	109.0
605.2	108.3
605.4	107.2
605.6	105.8
605.8	105.3
606.0	104.5
606.2	104.7
606.4	103.5
606.6	103.6
606.8	102.9
607.0	103.2
607.2	103.4
607.4	103.5
607.6	103.1
607.8	101.9
608.0	100.0
608.2	99.25
608.4	99.14
608.6	99.38
608.8	100.3
609.0	99.39
609.2	97.36
609.4	95.35
609.6	93.60
609.8	92.57
610.0	93.13
610.2	93.34
610.4	92.55
610.6	92.83
610.8	92.80
611.0	92.82
611.2	92.67
611.4	92.28
611.6	91.15
611.8	91.34
612.0	90.64
612.2	90.30
612.4	89.44
612.6	88.76
612.8	87.89
613.0	88.27
613.2	88.48
613.4	88.04
613.6	88.15
613.8	87.75
614.0	87.31
614.2	86.16
614.4	85.91
614.6	85.34
614.8	85.47
615.0	84.89
615.2	84.72
615.4	82.63
615.6	81.86
615.8	81.30
616.0	81.74
616.2	81.57
616.4	82.49
616.6	82.05
616.8	81.77
617.0	80.73
617.2	80.61
617.4	78.88
617.6	78.92
617.8	78.54
618.0	78.37
618.2	78.15
618.4	78.16
618.6	77.07
618.8	76.67
619.0	75.46
619.2	74.28
619.4	73.23
619.6	73.94
619.8	74.16
620.0	74.47
620.2	73.89
620.4	72.82
620.6	71.42
620.8	70.80
621.0	70.82
621.2	71.03
621.4	70.72
621.6	70.82
621.8	69.99
622.0	69.29
622.2	68.95
622.4	68.45
622.6	68.35
622.8	68.45
623.0	68.33
623.2	67.99
623.4	66.84
623.6	65.39
623.8	64.81
624.0	64.91
624.2	65.56
624.4	65.11
624.6	65.97
624.8	65.95
625.0	65.72
625.2	65.27
625.4	64.09
625.6	63.64
625.8	64.38
626.0	64.03
626.2	63.27
626.4	62.28
626.6	61.27
626.8	62.33
627.0	62.57
627.2	61.52
627.4	60.84
627.6	60.28
627.8	60.01
628.0	60.96
628.2	59.58
628.4	58.50
628.6	58.24
628.8	58.49
629.0	58.70
629.2	58.78
629.4	57.35
629.6	56.45
629.8	55.67
630.0	55.25
630.2	55.20
630.4	54.86
630.6	55.50
630.8	55.75
631.0	55.05
631.2	54.33
631.4	54.67
631.6	53.50
631.8	53.97
632.0	53.65
632.2	52.46
632.4	51.70
632.6	51.37
632.8	50.20
633.0	50.67
633.2	50.73
633.4	50.44
633.6	50.43
633.8	50.32
634.0	50.04
634.2	50.46
634.4	50.49
634.6	50.03
634.8	49.27
635.0	48.90
635.2	48.28
635.4	48.07
635.6	47.48
635.8	47.27
636.0	46.88
636.2	47.60
636.4	47.73
636.6	47.46
636.8	47.36
637.0	46.84
637.2	46.31
637.4	45.95
637.6	45.69
637.8	45.47
638.0	45.03
638.2	44.06
638.4	43.74
638.6	43.10
638.8	43.00
639.0	43.22
639.2	43.16
639.4	43.26
639.6	43.05
639.8	42.23
640.0	41.53
640.2	40.98
640.4	40.97
640.6	41.33
640.8	41.03
641.0	40.16
641.2	39.80
641.4	39.46
641.6	39.70
641.8	40.02
642.0	39.97
642.2	39.38
642.4	38.70
642.6	38.31
642.8	37.98
643.0	37.48
643.2	37.54
643.4	37.78
643.6	37.97
643.8	37.97
644.0	37.64
644.2	37.43
644.4	37.47
644.6	37.72
644.8	37.63
645.0	37.04
645.2	35.96
645.4	35.39
645.6	35.43
645.8	35.22
646.0	35.42
646.2	35.70
646.4	35.66
646.6	35.03
646.8	34.99
647.0	34.38
647.2	34.28
647.4	34.28
647.6	34.51
647.8	33.84
648.0	33.35
648.2	32.91
648.4	32.15
648.6	31.75
648.8	31.42
649.0	32.01
649.2	32.32
649.4	32.82
649.6	32.43
649.8	31.74
650.0	30.87
650.2	30.65
650.4	30.49
650.6	30.74
650.8	30.49
651.0	30.13
651.2	30.54
651.4	30.52
651.6	29.68
651.8	29.18
652.0	28.84
652.2	28.37
652.4	29.16
652.6	29.13
652.8	28.63
653.0	28.23
653.2	28.43
653.4	27.84
653.6	27.92
653.8	27.49
654.0	27.27
654.2	27.36
654.4	27.44
654.6	27.53
654.8	27.28
655.0	26.69
655.2	26.25
655.4	26.06
655.6	25.44
655.8	25.98
656.0	26.20
656.2	25.52
656.4	25.53
656.6	25.67
656.8	25.27
657.0	25.66
657.2	25.77
657.4	25.27
657.6	25.17
657.8	25.38
658.0	24.49
658.2	23.91
658.4	23.44
658.6	23.22
658.8	23.42
659.0	23.61
659.2	23.36
659.4	23.47
659.6	23.30
659.8	23.12
660.0	23.43
660.2	23.01
660.4	22.51
660.6	22.08
660.8	21.79
661.0	22.32
661.2	22.39
661.4	22.06
661.6	21.84
661.8	21.77
662.0	21.76
662.2	21.44
662.4	20.74
662.6	20.25
662.8	20.30
663.0	20.74
663.2	20.27
663.4	19.89
663.6	20.05
663.8	19.97
664.0	20.01
664.2	19.45
664.4	18.89
664.6	19.37
664.8	19.65
665.0	19.60
665.2	19.32
665.4	18.92
665.6	18.80
665.8	18.71
666.0	18.41
666.2	18.11
666.4	17.90
666.6	18.04
666.8	18.35
667.0	18.33
667.2	18.40
667.4	18.09
667.6	17.73
667.8	17.37
668.0	17.51
668.2	17.16
668.4	17.30
668.6	17.38
668.8	17.08
669.0	16.79
669.2	16.66
669.4	16.08
669.6	16.32
669.8	16.55
670.0	16.22
670.2	16.48
670.4	16.52
670.6	16.60
670.8	16.95
671.0	16.89
671.2	16.39
671.4	16.63
671.6	16.35
671.8	16.39
672.0	15.83
672.2	15.57
672.4	15.04
672.6	15.09
672.8	14.98
673.0	15.15
673.2	15.01
673.4	15.19
673.6	15.10
673.8	14.76
674.0	14.55
674.2	14.59
674.4	14.39
674.6	14.08
674.8	14.05
675.0	14.50
675.2	15.13
675.4	15.22
675.6	14.76
675.8	14.02
676.0	13.59
676.2	13.71
676.4	14.00
676.6	13.76
676.8	13.50
677.0	13.25
677.2	13.36
677.4	13.08
677.6	13.06
677.8	12.88
678.0	12.59
678.2	12.19
678.4	12.25
678.6	12.05
678.8	11.92
679.0	12.14
679.2	12.38
679.4	12.29
679.6	12.64
679.8	12.62
680.0	12.20
680.2	12.21
680.4	12.34
680.6	12.18
680.8	12.19
681.0	12.19
681.2	11.72
681.4	11.29
681.6	11.02
681.8	10.75
682.0	10.91
682.2	10.89
682.4	10.90
682.6	10.57
682.8	10.42
683.0	10.44
683.2	10.79
683.4	10.72
683.6	11.02
683.8	10.88
684.0	10.78
684.2	10.64
684.4	10.66
684.6	10.91
684.8	11.09
685.0	10.52
685.2	9.982
685.4	10.14
685.6	9.734
685.8	10.06
686.0	10.31
686.2	9.926
686.4	9.868
686.6	10.28
686.8	9.914
687.0	9.787
687.2	9.699
687.4	9.256
687.6	9.385
687.8	9.734
688.0	9.862
688.2	9.550
688.4	9.358
688.6	9.264
688.8	9.146
689.0	9.220
689.2	9.060
689.4	8.702
689.6	8.508
689.8	8.758
690.0	8.624
690.2	8.776
690.4	8.729
690.6	8.813
690.8	8.646
691.0	8.291
691.2	8.047
691.4	7.959
691.6	8.010
691.8	8.029
692.0	8.144
692.2	7.955
692.4	7.786
692.6	7.445
692.8	7.569
693.0	7.616
693.2	8.114
693.4	8.072
693.6	8.107
693.8	7.835
694.0	7.878
694.2	8.066
694.4	7.934
694.6	7.424
694.8	7.367
695.0	7.176
695.2	7.480
695.4	7.633
695.6	7.489
695.8	7.540
696.0	7.646
696.2	7.476
696.4	7.531
696.6	7.351
696.8	7.016
697.0	7.210
697.2	7.391
697.4	7.307
697.6	7.152
697.8	6.956
698.0	6.756
698.2	6.899
698.4	6.972
698.6	6.637
698.8	6.485
699.0	6.429
699.2	6.377
699.4	6.407
699.6	6.283
699.8	5.923
700.0	5.988
700.2	6.262
700.4	6.488
700.6	6.563
700.8	6.754
701.0	6.862
701.2	6.931
701.4	6.860
701.6	6.741
701.8	6.401
702.0	6.205
702.2	5.923
702.4	5.688
702.6	5.438
702.8	5.706
703.0	5.820
703.2	5.673
703.4	5.717
703.6	5.712
703.8	5.433
704.0	5.699
704.2	5.664
704.4	5.347
704.6	5.402
704.8	5.553
705.0	5.519
705.2	5.764
705.4	5.882
705.6	5.727
705.8	5.542
706.0	5.555
706.2	5.829
706.4	5.746
706.6	5.884
706.8	5.501
707.0	5.400
707.2	5.248
707.4	5.354
707.6	5.363
707.8	5.627
708.0	5.081
708.2	4.835
708.4	4.580
708.6	4.559
708.8	5.053
709.0	5.461
709.2	5.431
709.4	5.121
709.6	5.080
709.8	4.954
710.0	5.081
710.2	4.918
710.4	4.851
710.6	4.599
710.8	4.661
711.0	4.855
711.2	5.048
711.4	5.038
711.6	4.947
711.8	4.858
712.0	4.708
712.2	4.615
712.4	4.640
712.6	4.548
712.8	4.176
713.0	4.191
713.2	4.297
713.4	4.376
713.6	4.542
713.8	4.522
714.0	4.413
714.2	4.470
714.4	4.499
714.6	4.398
714.8	4.302
715.0	4.118
715.2	4.114
715.4	4.110
715.6	3.958
715.8	3.892
716.0	4.084
716.2	4.138
716.4	4.326
716.6	4.414
716.8	4.219
717.0	4.080
717.2	4.106
717.4	4.102
717.6	4.111
717.8	4.089
718.0	3.844
718.2	3.806
718.4	3.830
718.6	4.004
718.8	3.955
719.0	3.912
719.2	3.934
719.4	3.891
719.6	3.646
719.8	3.535
720.0	3.295
720.2	3.295
720.4	3.530
720.6	3.670
720.8	3.653
721.0	3.627
721.2	3.611
721.4	3.393
721.6	3.248
721.8	3.295
722.0	3.408
722.2	3.386
722.4	3.535
722.6	3.219
722.8	3.146
723.0	3.262
723.2	3.438
723.4	3.562
723.6	3.580
723.8	3.184
724.0	3.134
724.2	3.104
724.4	3.133
724.6	3.194
724.8	2.997
725.0	2.835
725.2	2.991
725.4	3.223
725.6	3.227
725.8	3.228
726.0	2.994
726.2	2.814
726.4	2.818
726.6	3.072
726.8	3.028
727.0	3.048
727.2	2.881
727.4	2.617
727.6	2.488
727.8	2.488
728.0	2.622
728.2	2.705
728.4	2.775
728.6	2.850
728.8	2.765
729.0	2.648
729.2	2.638
729.4	2.478
729.6	2.508
729.8	2.570
730.0	2.558
730.2	2.532
730.4	2.523
730.6	2.405
730.8	2.458
731.0	2.427
731.2	2.501
731.4	2.692
731.6	2.818
731.8	2.767
732.0	2.665
732.2	2.535
732.4	2.580
732.6	2.560
732.8	2.364
733.0	2.175
733.2	1.915
733.4	2.088
733.6	2.479
733.8	2.563
734.0	2.448
734.2	2.226
734.4	1.854
734.6	1.906
734.8	2.204
735.0	2.311
735.2	2.372
735.4	2.367
735.6	2.178
735.8	2.265
736.0	2.351
736.2	2.339
736.4	2.389
736.6	2.293
736.8	2.042
737.0	2.052
737.2	1.977
737.4	1.955
737.6	1.837
737.8	1.913
738.0	1.919
738.2	2.077
738.4	2.172
738.6	2.165
738.8	1.966
739.0	2.087
739.2	1.958
739.4	2.035
739.6	1.948
739.8	1.864
740.0	1.809
740.2	1.820
740.4	1.799
740.6	1.988
740.8	2.014
741.0	1.946
741.2	1.858
741.4	1.758
741.6	1.696
741.8	1.850
742.0	1.881
742.2	1.755
742.4	1.664
742.6	1.688
742.8	1.741
743.0	1.847
743.2	1.758
743.4	1.784
743.6	1.818
743.8	1.891
744.0	2.067
744.2	1.826
744.4	1.680
744.6	1.720
744.8	1.738
745.0	1.730
745.2	1.746
745.4	1.498
745.6	1.392
745.8	1.351
746.0	1.324
746.2	1.273
746.4	1.502
746.6	1.687
746.8	1.744
747.0	1.776
747.2	1.738
747.4	1.474
747.6	1.570
747.8	1.618
748.0	1.540
748.2	1.519
748.4	1.602
748.6	1.336
748.8	1.331
749.0	1.347
749.2	1.323
749.4	1.450
749.6	1.611
749.8	1.551
750.0	1.591
750.2	1.640
750.4	1.598
750.6	1.628
750.8	1.700
751.0	1.719
751.2	1.676
751.4	1.601
751.6	1.405
751.8	1.449
752.0	1.387
752.2	1.322
752.4	1.218
752.6	1.107
752.8	1.162
753.0	1.555
753.2	1.641
753.4	1.655
753.6	1.505
753.8	1.405
754.0	1.342
754.2	1.320
754.4	1.248
754.6	1.130
754.8	1.039
755.0	1.041
755.2	1.020
755.4	1.086
755.6	1.114
755.8	1.123
756.0	1.083
756.2	1.126
756.4	1.272
756.6	1.387
756.8	1.386
757.0	1.277
757.2	1.166
757.4	1.284
757.6	1.450
757.8	1.617
758.0	1.550
758.2	1.297
758.4	1.182
758.6	1.009
758.8	0.925
759.0	1.109
759.2	1.144
759.4	1.109
759.6	1.126
759.8	1.043
760.0	1.005
760.2	1.122
760.4	1.239
760.6	1.100
760.8	1.080
761.0	0.971
761.2	0.928
761.4	0.918
761.6	0.946
761.8	0.916
762.0	1.073
762.2	1.019
762.4	1.030
762.6	0.976
762.8	0.930
763.0	0.840
763.2	0.924
763.4	0.996
763.6	1.151
763.8	1.283
764.0	1.177
764.2	1.108
764.4	1.204
764.6	1.217
764.8	1.186
765.0	1.121
765.2	0.868
765.4	0.828
765.6	0.927
765.8	0.867
766.0	0.803
766.2	0.904
766.4	0.949
766.6	0.919
766.8	1.007
767.0	0.987
767.2	1.006
767.4	1.089
767.6	1.042
767.8	0.887
768.0	0.841
768.2	0.704
768.4	0.848
768.6	0.981
768.8	1.037
769.0	1.075
769.2	1.076
769.4	0.846
769.6	0.839
769.8	0.895
770.0	0.916
770.2	0.951
770.4	0.925
770.6	0.845
770.8	0.666
771.0	0.719
771.2	0.683
771.4	0.764
771.6	0.845
771.8	0.909
772.0	0.809
772.2	0.770
772.4	0.614
772.6	0.678
772.8	0.759
773.0	0.715
773.2	0.697
773.4	0.762
773.6	0.801
773.8	0.963
774.0	1.037
774.2	0.871
774.4	0.708
774.6	0.612
774.8	0.511
775.0	0.646
775.2	0.822
775.4	0.983
775.6	0.995
775.8	0.826
776.0	0.659
776.2	0.596
776.4	0.561
776.6	0.629
776.8	0.706
777.0	0.707
777.2	0.853
777.4	0.929
777.6	0.918
777.8	0.872
778.0	1.001
778.2	0.968
778.4	0.956
778.6	0.883
778.8	0.700
779.0	0.638
779.2	0.770
779.4	0.833
779.6	0.852
779.8	0.967
780.0	0.931
780.2	0.943
780.4	0.953
780.6	0.897
780.8	0.892
781.0	0.891
781.2	0.924
781.4	0.950
781.6	0.908
781.8	0.817
782.0	0.807
782.2	0.697
782.4	0.800
782.6	0.888
782.8	0.811
783.0	0.860
783.2	0.954
783.4	1.005
783.6	1.057
783.8	0.956
784.0	0.833
784.2	0.770
784.4	0.888
784.6	1.066
784.8	1.184
785.0	1.171
785.2	1.250
785.4	1.096
785.6	1.158
785.8	1.195
786.0	1.274
786.2	1.242
786.4	1.420
786.6	1.417
786.8	1.444
787.0	1.421
787.2	1.384
787.4	1.298
787.6	1.451
787.8	1.338
788.0	1.256
788.2	1.315
788.4	1.260
788.6	1.410
788.8	1.576
789.0	1.490
789.2	1.544
789.4	1.544
789.6	1.347
789.8	1.244
790.0	1.307
790.2	1.425
790.4	1.637
790.6	1.966
790.8	2.068
791.0	1.917
791.2	2.003
791.4	1.991
791.6	1.951
791.8	2.128
792.0	2.096
792.2	1.973
792.4	2.106
792.6	2.053
792.8	2.125
793.0	2.206
793.2	2.386
793.4	2.572
793.6	2.918
793.8	2.872
794.0	2.699
794.2	2.608
794.4	2.596
794.6	2.644
794.8	2.746
795.0	2.793
795.2	2.638
795.4	2.729
795.6	2.874
795.8	3.093
796.0	3.093
796.2	3.298
796.4	3.217
796.6	3.329
796.8	3.385
797.0	3.359
797.2	3.295
797.4	3.294
797.6	3.325
797.8	3.272
798.0	3.259
798.2	3.156
798.4	3.219
798.6	3.198
798.8	3.320
799.0	3.191
799.2	3.483
799.4	3.598
799.6	3.824
799.8	3.832
800.0	3.440

