Sample:	'20211010A(EM)
File name:	G-CDs 2 200.FDS
Run date:	'14:59:19, 06/10/2023
Operator:	Administrator
Comment:	'

Instrument
Model:	F-4700 FL Spectrophotometer
Serial number:	2019-001
ROM Version:	5J24010 00

Instrument parameters
Measurement type:	Wavelength scan
Scan mode:	Emission
Data mode:	Fluorescence
EX WL:	400.0 nm
EM  Start WL:	420.0 nm
EM  End WL:	800.0 nm
Scan speed:	1200 nm/min
Delay:	0.0 s
EX Slit:	10.0 nm
EM Slit:	10.0 nm
PMT Voltage:	440 V
Response:	0.002 s
Corrected spectra:	Off
Shutter control:	On

Processing performed
Savitsky-Golay smoothed
Smoothing order:	3
Number of points:	7
Number of times:	1

Peak integration
Integration method:	Rectangular
Sensitivity:	1
Threshold:	1.000

Peaks
No.	Start(nm)	Apex(nm)	End(nm)	Height(Data)	Valley(nm)	Valley(Data)
1	420.0	545.0	547.0	6668	547.0	6637
2	547.0	548.0	777.2	6648	777.2	7.035

Data points
nm	Data
420.0	92.61
420.2	92.63
420.4	93.51
420.6	94.72
420.8	95.61
421.0	95.30
421.2	95.26
421.4	96.07
421.6	96.55
421.8	96.45
422.0	96.29
422.2	95.97
422.4	96.97
422.6	98.31
422.8	99.53
423.0	99.88
423.2	100.1
423.4	100.1
423.6	100.1
423.8	100.5
424.0	101.0
424.2	101.6
424.4	102.0
424.6	102.0
424.8	102.1
425.0	102.7
425.2	103.1
425.4	103.4
425.6	103.5
425.8	103.7
426.0	104.2
426.2	104.5
426.4	104.9
426.6	105.1
426.8	105.7
427.0	106.9
427.2	108.1
427.4	108.3
427.6	108.2
427.8	107.8
428.0	107.5
428.2	108.1
428.4	109.1
428.6	109.8
428.8	110.5
429.0	111.0
429.2	110.8
429.4	111.0
429.6	111.0
429.8	111.6
430.0	112.2
430.2	113.1
430.4	113.6
430.6	114.3
430.8	113.9
431.0	114.1
431.2	114.5
431.4	115.0
431.6	115.8
431.8	116.1
432.0	116.4
432.2	117.2
432.4	117.9
432.6	117.9
432.8	118.4
433.0	118.1
433.2	118.5
433.4	119.2
433.6	119.1
433.8	118.9
434.0	119.7
434.2	120.5
434.4	121.5
434.6	122.1
434.8	122.5
435.0	123.7
435.2	124.8
435.4	125.7
435.6	126.2
435.8	126.0
436.0	126.2
436.2	127.8
436.4	128.8
436.6	129.8
436.8	130.9
437.0	131.2
437.2	131.9
437.4	133.0
437.6	134.1
437.8	135.8
438.0	136.3
438.2	136.9
438.4	137.2
438.6	137.8
438.8	138.3
439.0	139.8
439.2	140.3
439.4	141.5
439.6	142.8
439.8	144.2
440.0	145.2
440.2	146.2
440.4	146.8
440.6	147.9
440.8	148.9
441.0	149.8
441.2	151.6
441.4	153.4
441.6	154.7
441.8	157.0
442.0	157.6
442.2	158.2
442.4	159.4
442.6	160.9
442.8	161.7
443.0	163.5
443.2	164.4
443.4	165.8
443.6	167.7
443.8	169.6
444.0	171.9
444.2	174.1
444.4	176.1
444.6	177.0
444.8	178.2
445.0	180.6
445.2	182.3
445.4	183.3
445.6	185.0
445.8	186.0
446.0	187.7
446.2	190.6
446.4	192.6
446.6	194.4
446.8	196.1
447.0	196.9
447.2	197.6
447.4	198.7
447.6	199.6
447.8	201.7
448.0	203.2
448.2	204.5
448.4	206.4
448.6	207.7
448.8	208.7
449.0	211.3
449.2	213.2
449.4	214.8
449.6	217.3
449.8	218.8
450.0	220.1
450.2	220.9
450.4	222.0
450.6	223.2
450.8	225.7
451.0	228.1
451.2	228.7
451.4	229.7
451.6	231.8
451.8	232.8
452.0	233.5
452.2	233.9
452.4	233.7
452.6	235.3
452.8	237.3
453.0	239.5
453.2	240.4
453.4	241.3
453.6	241.6
453.8	242.0
454.0	242.3
454.2	243.7
454.4	244.3
454.6	245.5
454.8	246.5
455.0	247.6
455.2	248.1
455.4	248.5
455.6	248.7
455.8	249.0
456.0	249.3
456.2	250.4
456.4	251.6
456.6	253.0
456.8	254.0
457.0	254.8
457.2	255.0
457.4	255.2
457.6	255.2
457.8	255.2
458.0	255.9
458.2	256.7
458.4	257.6
458.6	258.0
458.8	257.7
459.0	257.7
459.2	258.3
459.4	258.8
459.6	259.7
459.8	260.4
460.0	260.6
460.2	260.6
460.4	260.8
460.6	262.0
460.8	262.8
461.0	263.2
461.2	263.5
461.4	262.9
461.6	263.2
461.8	264.1
462.0	265.0
462.2	265.3
462.4	266.4
462.6	267.3
462.8	268.3
463.0	268.6
463.2	269.1
463.4	268.8
463.6	270.1
463.8	271.9
464.0	273.9
464.2	275.6
464.4	276.7
464.6	277.5
464.8	278.9
465.0	280.6
465.2	282.8
465.4	283.7
465.6	285.1
465.8	286.0
466.0	288.4
466.2	290.1
466.4	292.0
466.6	293.1
466.8	295.0
467.0	296.5
467.2	299.4
467.4	302.1
467.6	304.5
467.8	308.2
468.0	311.1
468.2	313.0
468.4	315.5
468.6	317.5
468.8	319.0
469.0	321.9
469.2	325.1
469.4	328.4
469.6	333.4
469.8	336.4
470.0	339.2
470.2	342.9
470.4	347.0
470.6	350.8
470.8	355.7
471.0	359.3
471.2	362.2
471.4	367.7
471.6	371.8
471.8	376.2
472.0	381.4
472.2	386.7
472.4	390.8
472.6	395.9
472.8	399.8
473.0	405.6
473.2	409.5
473.4	414.0
473.6	417.8
473.8	423.2
474.0	428.8
474.2	437.1
474.4	444.1
474.6	451.5
474.8	457.5
475.0	464.0
475.2	468.2
475.4	475.2
475.6	481.7
475.8	489.3
476.0	495.6
476.2	502.4
476.4	508.2
476.6	515.3
476.8	521.1
477.0	528.6
477.2	535.9
477.4	543.6
477.6	551.0
477.8	557.8
478.0	563.7
478.2	570.5
478.4	577.4
478.6	585.1
478.8	594.0
479.0	601.2
479.2	610.3
479.4	619.2
479.6	628.5
479.8	636.1
480.0	644.4
480.2	652.4
480.4	663.0
480.6	672.5
480.8	682.0
481.0	688.6
481.2	697.8
481.4	706.7
481.6	716.6
481.8	726.1
482.0	734.5
482.2	743.4
482.4	753.0
482.6	763.2
482.8	774.0
483.0	783.4
483.2	792.1
483.4	801.7
483.6	810.6
483.8	822.6
484.0	834.3
484.2	846.2
484.4	856.4
484.6	865.6
484.8	874.4
485.0	884.0
485.2	893.7
485.4	905.2
485.6	915.7
485.8	925.7
486.0	938.0
486.2	948.4
486.4	959.1
486.6	970.5
486.8	982.4
487.0	993.4
487.2	1006
487.4	1014
487.6	1025
487.8	1038
488.0	1050
488.2	1063
488.4	1075
488.6	1088
488.8	1099
489.0	1113
489.2	1125
489.4	1138
489.6	1150
489.8	1163
490.0	1175
490.2	1190
490.4	1204
490.6	1218
490.8	1231
491.0	1243
491.2	1260
491.4	1275
491.6	1288
491.8	1301
492.0	1314
492.2	1330
492.4	1345
492.6	1359
492.8	1372
493.0	1388
493.2	1405
493.4	1423
493.6	1440
493.8	1454
494.0	1468
494.2	1486
494.4	1502
494.6	1519
494.8	1536
495.0	1552
495.2	1569
495.4	1590
495.6	1609
495.8	1629
496.0	1646
496.2	1662
496.4	1679
496.6	1698
496.8	1715
497.0	1733
497.2	1753
497.4	1771
497.6	1791
497.8	1811
498.0	1830
498.2	1849
498.4	1871
498.6	1894
498.8	1912
499.0	1932
499.2	1953
499.4	1974
499.6	1997
499.8	2024
500.0	2045
500.2	2067
500.4	2089
500.6	2113
500.8	2138
501.0	2163
501.2	2187
501.4	2210
501.6	2233
501.8	2259
502.0	2283
502.2	2307
502.4	2332
502.6	2358
502.8	2383
503.0	2408
503.2	2432
503.4	2455
503.6	2478
503.8	2500
504.0	2528
504.2	2557
504.4	2587
504.6	2616
504.8	2639
505.0	2659
505.2	2692
505.4	2721
505.6	2748
505.8	2779
506.0	2802
506.2	2824
506.4	2852
506.6	2882
506.8	2910
507.0	2940
507.2	2962
507.4	2992
507.6	3022
507.8	3054
508.0	3084
508.2	3114
508.4	3138
508.6	3169
508.8	3196
509.0	3222
509.2	3255
509.4	3292
509.6	3328
509.8	3359
510.0	3383
510.2	3404
510.4	3431
510.6	3464
510.8	3500
511.0	3532
511.2	3567
511.4	3593
511.6	3620
511.8	3647
512.0	3672
512.2	3703
512.4	3735
512.6	3764
512.8	3793
513.0	3821
513.2	3847
513.4	3883
513.6	3914
513.8	3947
514.0	3976
514.2	4007
514.4	4033
514.6	4065
514.8	4096
515.0	4127
515.2	4156
515.4	4188
515.6	4217
515.8	4253
516.0	4278
516.2	4308
516.4	4329
516.6	4354
516.8	4387
517.0	4424
517.2	4459
517.4	4492
517.6	4510
517.8	4532
518.0	4562
518.2	4597
518.4	4633
518.6	4662
518.8	4688
519.0	4716
519.2	4750
519.4	4780
519.6	4802
519.8	4820
520.0	4841
520.2	4869
520.4	4904
520.6	4938
520.8	4965
521.0	4987
521.2	5007
521.4	5033
521.6	5064
521.8	5099
522.0	5126
522.2	5157
522.4	5181
522.6	5208
522.8	5236
523.0	5249
523.2	5262
523.4	5288
523.6	5311
523.8	5345
524.0	5374
524.2	5396
524.4	5418
524.6	5437
524.8	5456
525.0	5478
525.2	5505
525.4	5537
525.6	5560
525.8	5583
526.0	5609
526.2	5633
526.4	5656
526.6	5676
526.8	5694
527.0	5713
527.2	5735
527.4	5752
527.6	5767
527.8	5791
528.0	5819
528.2	5839
528.4	5853
528.6	5868
528.8	5884
529.0	5906
529.2	5932
529.4	5954
529.6	5972
529.8	5995
530.0	6016
530.2	6033
530.4	6047
530.6	6056
530.8	6065
531.0	6077
531.2	6097
531.4	6121
531.6	6134
531.8	6152
532.0	6168
532.2	6187
532.4	6207
532.6	6227
532.8	6228
533.0	6236
533.2	6243
533.4	6262
533.6	6279
533.8	6297
534.0	6302
534.2	6307
534.4	6314
534.6	6335
534.8	6353
535.0	6374
535.2	6390
535.4	6404
535.6	6416
535.8	6429
536.0	6429
536.2	6436
536.4	6437
536.6	6445
536.8	6461
537.0	6467
537.2	6469
537.4	6489
537.6	6499
537.8	6517
538.0	6539
538.2	6543
538.4	6541
538.6	6546
538.8	6550
539.0	6559
539.2	6565
539.4	6574
539.6	6581
539.8	6590
540.0	6600
540.2	6607
540.4	6609
540.6	6611
540.8	6610
541.0	6616
541.2	6628
541.4	6641
541.6	6647
541.8	6651
542.0	6650
542.2	6647
542.4	6647
542.6	6651
542.8	6646
543.0	6647
543.2	6650
543.4	6653
543.6	6655
543.8	6660
544.0	6658
544.2	6650
544.4	6652
544.6	6659
544.8	6665
545.0	6668
545.2	6664
545.4	6658
545.6	6659
545.8	6660
546.0	6662
546.2	6657
546.4	6649
546.6	6643
546.8	6641
547.0	6637
547.2	6640
547.4	6646
547.6	6647
547.8	6648
548.0	6648
548.2	6641
548.4	6633
548.6	6629
548.8	6618
549.0	6613
549.2	6612
549.4	6612
549.6	6605
549.8	6599
550.0	6595
550.2	6587
550.4	6582
550.6	6582
550.8	6574
551.0	6574
551.2	6568
551.4	6554
551.6	6547
551.8	6531
552.0	6519
552.2	6517
552.4	6508
552.6	6507
552.8	6507
553.0	6492
553.2	6490
553.4	6486
553.6	6476
553.8	6473
554.0	6455
554.2	6438
554.4	6433
554.6	6434
554.8	6431
555.0	6429
555.2	6412
555.4	6393
555.6	6380
555.8	6369
556.0	6365
556.2	6355
556.4	6351
556.6	6339
556.8	6324
557.0	6308
557.2	6298
557.4	6281
557.6	6278
557.8	6267
558.0	6263
558.2	6250
558.4	6238
558.6	6218
558.8	6200
559.0	6185
559.2	6183
559.4	6165
559.6	6159
559.8	6147
560.0	6132
560.2	6119
560.4	6099
560.6	6079
560.8	6072
561.0	6059
561.2	6051
561.4	6037
561.6	6026
561.8	6013
562.0	6002
562.2	5987
562.4	5968
562.6	5959
562.8	5953
563.0	5943
563.2	5937
563.4	5919
563.6	5885
563.8	5866
564.0	5848
564.2	5834
564.4	5832
564.6	5823
564.8	5805
565.0	5785
565.2	5775
565.4	5749
565.6	5735
565.8	5725
566.0	5707
566.2	5688
566.4	5674
566.6	5658
566.8	5647
567.0	5631
567.2	5618
567.4	5606
567.6	5590
567.8	5580
568.0	5561
568.2	5542
568.4	5526
568.6	5513
568.8	5497
569.0	5476
569.2	5452
569.4	5437
569.6	5414
569.8	5394
570.0	5379
570.2	5363
570.4	5348
570.6	5335
570.8	5320
571.0	5304
571.2	5291
571.4	5271
571.6	5251
571.8	5236
572.0	5225
572.2	5212
572.4	5195
572.6	5168
572.8	5149
573.0	5135
573.2	5126
573.4	5110
573.6	5091
573.8	5064
574.0	5046
574.2	5030
574.4	5018
574.6	5002
574.8	4987
575.0	4970
575.2	4955
575.4	4936
575.6	4915
575.8	4888
576.0	4873
576.2	4862
576.4	4854
576.6	4842
576.8	4826
577.0	4798
577.2	4775
577.4	4753
577.6	4735
577.8	4724
578.0	4708
578.2	4694
578.4	4681
578.6	4667
578.8	4654
579.0	4634
579.2	4605
579.4	4583
579.6	4566
579.8	4547
580.0	4537
580.2	4521
580.4	4506
580.6	4486
580.8	4471
581.0	4447
581.2	4426
581.4	4411
581.6	4396
581.8	4382
582.0	4372
582.2	4356
582.4	4338
582.6	4319
582.8	4302
583.0	4283
583.2	4263
583.4	4248
583.6	4230
583.8	4213
584.0	4201
584.2	4183
584.4	4163
584.6	4141
584.8	4126
585.0	4112
585.2	4096
585.4	4082
585.6	4071
585.8	4046
586.0	4033
586.2	4010
586.4	3994
586.6	3981
586.8	3975
587.0	3962
587.2	3948
587.4	3931
587.6	3911
587.8	3894
588.0	3879
588.2	3864
588.4	3845
588.6	3830
588.8	3813
589.0	3802
589.2	3789
589.4	3770
589.6	3752
589.8	3734
590.0	3720
590.2	3708
590.4	3693
590.6	3675
590.8	3657
591.0	3639
591.2	3622
591.4	3608
591.6	3594
591.8	3576
592.0	3561
592.2	3546
592.4	3534
592.6	3524
592.8	3515
593.0	3502
593.2	3487
593.4	3470
593.6	3453
593.8	3432
594.0	3414
594.2	3399
594.4	3379
594.6	3363
594.8	3345
595.0	3331
595.2	3318
595.4	3309
595.6	3297
595.8	3280
596.0	3264
596.2	3253
596.4	3239
596.6	3227
596.8	3207
597.0	3185
597.2	3169
597.4	3160
597.6	3150
597.8	3139
598.0	3122
598.2	3105
598.4	3090
598.6	3077
598.8	3063
599.0	3051
599.2	3034
599.4	3015
599.6	3001
599.8	2984
600.0	2969
600.2	2960
600.4	2951
600.6	2945
600.8	2933
601.0	2920
601.2	2900
601.4	2884
601.6	2870
601.8	2855
602.0	2841
602.2	2828
602.4	2812
602.6	2802
602.8	2790
603.0	2772
603.2	2756
603.4	2738
603.6	2721
603.8	2710
604.0	2696
604.2	2684
604.4	2669
604.6	2655
604.8	2641
605.0	2628
605.2	2616
605.4	2608
605.6	2599
605.8	2586
606.0	2573
606.2	2561
606.4	2545
606.6	2529
606.8	2515
607.0	2500
607.2	2490
607.4	2476
607.6	2466
607.8	2453
608.0	2446
608.2	2436
608.4	2424
608.6	2408
608.8	2395
609.0	2376
609.2	2363
609.4	2348
609.6	2334
609.8	2320
610.0	2305
610.2	2293
610.4	2284
610.6	2274
610.8	2264
611.0	2254
611.2	2245
611.4	2232
611.6	2222
611.8	2210
612.0	2191
612.2	2177
612.4	2165
612.6	2149
612.8	2141
613.0	2134
613.2	2119
613.4	2107
613.6	2093
613.8	2080
614.0	2069
614.2	2061
614.4	2048
614.6	2037
614.8	2025
615.0	2013
615.2	2001
615.4	1993
615.6	1983
615.8	1972
616.0	1962
616.2	1951
616.4	1938
616.6	1928
616.8	1918
617.0	1905
617.2	1895
617.4	1883
617.6	1874
617.8	1865
618.0	1852
618.2	1839
618.4	1829
618.6	1814
618.8	1807
619.0	1796
619.2	1784
619.4	1773
619.6	1763
619.8	1751
620.0	1742
620.2	1734
620.4	1727
620.6	1718
620.8	1707
621.0	1693
621.2	1679
621.4	1670
621.6	1665
621.8	1657
622.0	1646
622.2	1635
622.4	1627
622.6	1619
622.8	1611
623.0	1596
623.2	1585
623.4	1572
623.6	1563
623.8	1557
624.0	1548
624.2	1535
624.4	1529
624.6	1520
624.8	1511
625.0	1503
625.2	1494
625.4	1481
625.6	1471
625.8	1461
626.0	1451
626.2	1443
626.4	1434
626.6	1424
626.8	1418
627.0	1410
627.2	1399
627.4	1389
627.6	1379
627.8	1368
628.0	1360
628.2	1352
628.4	1344
628.6	1337
628.8	1330
629.0	1319
629.2	1310
629.4	1302
629.6	1296
629.8	1289
630.0	1280
630.2	1269
630.4	1262
630.6	1253
630.8	1246
631.0	1240
631.2	1230
631.4	1222
631.6	1215
631.8	1207
632.0	1201
632.2	1194
632.4	1184
632.6	1176
632.8	1168
633.0	1161
633.2	1157
633.4	1149
633.6	1143
633.8	1134
634.0	1125
634.2	1118
634.4	1113
634.6	1105
634.8	1100
635.0	1095
635.2	1087
635.4	1079
635.6	1069
635.8	1059
636.0	1053
636.2	1049
636.4	1043
636.6	1035
636.8	1027
637.0	1019
637.2	1012
637.4	1005
637.6	999.3
637.8	994.0
638.0	988.1
638.2	981.5
638.4	973.6
638.6	966.8
638.8	962.9
639.0	959.0
639.2	955.0
639.4	949.1
639.6	941.7
639.8	934.9
640.0	927.7
640.2	919.5
640.4	912.7
640.6	906.8
640.8	901.1
641.0	895.4
641.2	890.2
641.4	883.1
641.6	877.2
641.8	871.1
642.0	866.4
642.2	860.3
642.4	857.3
642.6	850.5
642.8	844.8
643.0	839.5
643.2	834.9
643.4	827.5
643.6	824.1
643.8	818.4
644.0	813.0
644.2	806.7
644.4	800.8
644.6	794.8
644.8	791.0
645.0	787.2
645.2	783.3
645.4	776.8
645.6	771.0
645.8	765.5
646.0	760.4
646.2	754.8
646.4	748.4
646.6	742.1
646.8	735.4
647.0	732.0
647.2	728.5
647.4	723.8
647.6	717.5
647.8	712.6
648.0	706.9
648.2	702.1
648.4	698.1
648.6	694.3
648.8	688.9
649.0	684.3
649.2	679.4
649.4	673.1
649.6	669.2
649.8	664.3
650.0	658.7
650.2	654.5
650.4	651.5
650.6	648.5
650.8	644.0
651.0	638.4
651.2	634.6
651.4	629.6
651.6	624.8
651.8	620.5
652.0	615.6
652.2	611.1
652.4	608.8
652.6	604.7
652.8	600.3
653.0	595.3
653.2	591.6
653.4	586.3
653.6	582.5
653.8	579.2
654.0	575.7
654.2	572.6
654.4	569.1
654.6	564.7
654.8	559.5
655.0	554.9
655.2	551.5
655.4	549.5
655.6	546.2
655.8	543.4
656.0	538.9
656.2	535.3
656.4	531.3
656.6	527.6
656.8	523.1
657.0	519.2
657.2	515.5
657.4	511.5
657.6	507.7
657.8	503.4
658.0	501.4
658.2	498.4
658.4	495.8
658.6	492.2
658.8	488.9
659.0	484.3
659.2	481.8
659.4	477.2
659.6	474.9
659.8	472.1
660.0	469.1
660.2	465.8
660.4	461.2
660.6	457.0
660.8	454.8
661.0	451.7
661.2	449.5
661.4	445.8
661.6	441.8
661.8	439.4
662.0	437.1
662.2	433.6
662.4	430.3
662.6	425.0
662.8	421.5
663.0	418.8
663.2	415.8
663.4	411.8
663.6	409.0
663.8	407.7
664.0	407.2
664.2	405.1
664.4	401.5
664.6	396.8
664.8	392.8
665.0	390.8
665.2	388.2
665.4	384.6
665.6	382.1
665.8	380.4
666.0	378.1
666.2	376.3
666.4	373.8
666.6	371.2
666.8	368.2
667.0	365.0
667.2	361.3
667.4	358.5
667.6	354.5
667.8	351.5
668.0	348.2
668.2	346.4
668.4	345.6
668.6	344.4
668.8	341.6
669.0	337.7
669.2	334.3
669.4	332.1
669.6	331.0
669.8	329.1
670.0	327.6
670.2	324.4
670.4	321.1
670.6	318.1
670.8	315.7
671.0	312.5
671.2	310.6
671.4	309.1
671.6	307.8
671.8	306.3
672.0	303.9
672.2	301.2
672.4	299.3
672.6	297.4
672.8	295.1
673.0	292.3
673.2	288.8
673.4	288.2
673.6	287.5
673.8	285.8
674.0	283.7
674.2	280.2
674.4	276.1
674.6	273.9
674.8	271.4
675.0	269.3
675.2	268.6
675.4	267.6
675.6	266.8
675.8	264.4
676.0	261.2
676.2	258.6
676.4	255.8
676.6	254.6
676.8	253.9
677.0	252.4
677.2	250.7
677.4	249.0
677.6	247.0
677.8	244.7
678.0	243.1
678.2	241.2
678.4	238.9
678.6	237.2
678.8	236.1
679.0	233.6
679.2	232.3
679.4	229.6
679.6	227.0
679.8	225.7
680.0	224.5
680.2	223.6
680.4	222.8
680.6	219.9
680.8	217.8
681.0	215.9
681.2	214.1
681.4	212.7
681.6	212.2
681.8	210.0
682.0	209.3
682.2	207.9
682.4	206.5
682.6	205.1
682.8	204.4
683.0	202.0
683.2	199.6
683.4	198.3
683.6	197.1
683.8	195.6
684.0	194.8
684.2	193.3
684.4	191.5
684.6	190.5
684.8	188.9
685.0	187.0
685.2	185.0
685.4	183.1
685.6	182.1
685.8	180.8
686.0	179.6
686.2	178.7
686.4	177.3
686.6	175.5
686.8	174.2
687.0	172.5
687.2	171.6
687.4	170.1
687.6	169.1
687.8	167.8
688.0	166.6
688.2	165.2
688.4	164.7
688.6	163.2
688.8	161.9
689.0	161.2
689.2	160.2
689.4	159.3
689.6	158.4
689.8	157.1
690.0	154.8
690.2	153.6
690.4	152.2
690.6	151.5
690.8	149.8
691.0	148.5
691.2	146.5
691.4	145.2
691.6	144.5
691.8	144.6
692.0	144.2
692.2	143.9
692.4	143.4
692.6	141.8
692.8	139.9
693.0	138.3
693.2	136.7
693.4	135.4
693.6	135.1
693.8	134.3
694.0	133.1
694.2	132.1
694.4	131.5
694.6	130.2
694.8	128.9
695.0	127.5
695.2	126.5
695.4	125.9
695.6	126.5
695.8	126.3
696.0	125.8
696.2	124.6
696.4	123.7
696.6	121.9
696.8	120.9
697.0	120.1
697.2	119.4
697.4	118.5
697.6	118.0
697.8	116.5
698.0	115.9
698.2	115.7
698.4	115.2
698.6	114.5
698.8	113.9
699.0	112.9
699.2	111.7
699.4	111.1
699.6	110.0
699.8	109.5
700.0	108.7
700.2	108.7
700.4	107.9
700.6	107.2
700.8	106.4
701.0	105.1
701.2	103.6
701.4	103.1
701.6	102.3
701.8	102.0
702.0	102.0
702.2	101.7
702.4	101.2
702.6	100.4
702.8	99.31
703.0	98.37
703.2	97.36
703.4	97.18
703.6	96.77
703.8	96.49
704.0	95.79
704.2	95.11
704.4	94.20
704.6	93.81
704.8	93.31
705.0	93.06
705.2	91.99
705.4	91.59
705.6	91.02
705.8	90.52
706.0	89.54
706.2	88.43
706.4	87.19
706.6	86.76
706.8	86.56
707.0	86.61
707.2	86.11
707.4	85.12
707.6	84.40
707.8	83.79
708.0	83.31
708.2	82.96
708.4	82.62
708.6	82.09
708.8	81.61
709.0	81.30
709.2	80.31
709.4	79.57
709.6	78.73
709.8	77.98
710.0	77.35
710.2	77.52
710.4	77.19
710.6	76.88
710.8	76.36
711.0	75.51
711.2	74.88
711.4	74.44
711.6	74.09
711.8	73.59
712.0	73.27
712.2	72.52
712.4	71.94
712.6	71.54
712.8	71.35
713.0	71.09
713.2	70.81
713.4	69.96
713.6	68.73
713.8	68.02
714.0	67.77
714.2	67.04
714.4	66.96
714.6	67.03
714.8	66.38
715.0	65.92
715.2	65.58
715.4	64.89
715.6	64.46
715.8	64.10
716.0	63.06
716.2	62.39
716.4	62.02
716.6	61.89
716.8	61.90
717.0	61.38
717.2	60.82
717.4	60.55
717.6	60.31
717.8	59.62
718.0	58.97
718.2	58.11
718.4	58.02
718.6	58.23
718.8	58.08
719.0	57.41
719.2	56.62
719.4	55.63
719.6	55.36
719.8	55.58
720.0	55.57
720.2	55.47
720.4	54.50
720.6	53.31
720.8	52.60
721.0	51.87
721.2	51.43
721.4	51.53
721.6	50.95
721.8	50.78
722.0	50.39
722.2	49.83
722.4	49.56
722.6	49.47
722.8	49.25
723.0	48.79
723.2	48.06
723.4	47.83
723.6	47.41
723.8	47.28
724.0	47.31
724.2	47.28
724.4	46.84
724.6	46.35
724.8	45.21
725.0	44.74
725.2	44.34
725.4	44.08
725.6	43.96
725.8	43.91
726.0	43.70
726.2	43.76
726.4	43.41
726.6	42.36
726.8	41.55
727.0	40.97
727.2	40.42
727.4	40.16
727.6	40.12
727.8	40.16
728.0	40.06
728.2	40.01
728.4	39.49
728.6	38.87
728.8	38.15
729.0	38.26
729.2	38.05
729.4	37.87
729.6	37.23
729.8	37.17
730.0	36.47
730.2	36.61
730.4	36.30
730.6	36.34
730.8	35.66
731.0	35.61
731.2	35.10
731.4	35.03
731.6	34.37
731.8	34.35
732.0	34.23
732.2	34.03
732.4	33.93
732.6	33.68
732.8	32.85
733.0	32.51
733.2	32.34
733.4	31.99
733.6	31.79
733.8	31.42
734.0	31.18
734.2	31.34
734.4	31.15
734.6	31.10
734.8	30.91
735.0	30.39
735.2	29.72
735.4	29.42
735.6	29.27
735.8	29.28
736.0	29.14
736.2	29.18
736.4	28.83
736.6	28.49
736.8	28.31
737.0	27.81
737.2	27.79
737.4	27.90
737.6	27.79
737.8	27.48
738.0	26.98
738.2	26.66
738.4	26.79
738.6	26.42
738.8	26.23
739.0	26.10
739.2	26.01
739.4	26.15
739.6	26.01
739.8	25.52
740.0	25.14
740.2	24.69
740.4	24.36
740.6	24.49
740.8	24.40
741.0	24.32
741.2	24.20
741.4	23.97
741.6	23.21
741.8	23.09
742.0	22.81
742.2	22.94
742.4	23.16
742.6	23.27
742.8	22.87
743.0	22.74
743.2	22.57
743.4	22.41
743.6	22.44
743.8	22.22
744.0	21.72
744.2	21.33
744.4	21.17
744.6	20.92
744.8	21.22
745.0	21.11
745.2	20.92
745.4	20.65
745.6	20.56
745.8	20.22
746.0	20.02
746.2	19.75
746.4	19.58
746.6	19.51
746.8	19.56
747.0	19.61
747.2	19.70
747.4	19.54
747.6	19.34
747.8	19.17
748.0	18.77
748.2	18.69
748.4	18.33
748.6	17.69
748.8	17.56
749.0	17.48
749.2	17.58
749.4	17.79
749.6	17.48
749.8	17.41
750.0	17.38
750.2	17.24
750.4	17.27
750.6	17.22
750.8	16.97
751.0	16.88
751.2	16.73
751.4	16.66
751.6	16.56
751.8	16.64
752.0	16.50
752.2	16.15
752.4	15.86
752.6	15.78
752.8	15.65
753.0	15.53
753.2	15.50
753.4	15.42
753.6	15.25
753.8	15.25
754.0	15.26
754.2	15.10
754.4	14.84
754.6	14.73
754.8	14.68
755.0	14.55
755.2	14.61
755.4	14.62
755.6	14.24
755.8	14.27
756.0	14.46
756.2	14.46
756.4	14.49
756.6	14.31
756.8	13.86
757.0	13.55
757.2	13.31
757.4	13.02
757.6	13.18
757.8	13.25
758.0	13.08
758.2	13.07
758.4	12.87
758.6	12.72
758.8	12.80
759.0	12.72
759.2	12.52
759.4	12.25
759.6	12.00
759.8	12.15
760.0	12.31
760.2	12.40
760.4	12.41
760.6	12.12
760.8	11.79
761.0	11.65
761.2	11.69
761.4	11.54
761.6	11.57
761.8	11.43
762.0	11.30
762.2	11.11
762.4	11.06
762.6	10.92
762.8	10.82
763.0	10.69
763.2	10.72
763.4	10.77
763.6	10.80
763.8	10.83
764.0	10.77
764.2	10.82
764.4	10.81
764.6	10.66
764.8	10.36
765.0	10.24
765.2	10.14
765.4	10.21
765.6	10.08
765.8	9.926
766.0	9.909
766.2	10.15
766.4	10.14
766.6	10.19
766.8	9.866
767.0	9.726
767.2	9.754
767.4	9.699
767.6	9.540
767.8	9.491
768.0	9.473
768.2	9.344
768.4	9.288
768.6	9.186
768.8	9.135
769.0	9.104
769.2	9.156
769.4	8.972
769.6	8.853
769.8	8.671
770.0	8.538
770.2	8.538
770.4	8.559
770.6	8.727
770.8	8.779
771.0	8.560
771.2	8.568
771.4	8.459
771.6	8.397
771.8	8.366
772.0	8.324
772.2	8.212
772.4	8.327
772.6	8.211
772.8	8.133
773.0	7.936
773.2	7.832
773.4	7.762
773.6	7.767
773.8	7.844
774.0	7.686
774.2	7.622
774.4	7.412
774.6	7.392
774.8	7.457
775.0	7.435
775.2	7.460
775.4	7.650
775.6	7.638
775.8	7.526
776.0	7.379
776.2	7.219
776.4	7.283
776.6	7.272
776.8	7.342
777.0	7.157
777.2	7.035
777.4	7.081
777.6	7.068
777.8	7.055
778.0	7.299
778.2	7.381
778.4	7.334
778.6	7.167
778.8	7.178
779.0	7.218
779.2	7.299
779.4	7.430
779.6	7.332
779.8	7.168
780.0	7.230
780.2	7.153
780.4	7.227
780.6	7.362
780.8	7.417
781.0	7.454
781.2	7.368
781.4	7.322
781.6	7.408
781.8	7.319
782.0	7.361
782.2	7.529
782.4	7.758
782.6	8.111
782.8	8.346
783.0	8.495
783.2	8.729
783.4	8.859
783.6	8.894
783.8	8.804
784.0	8.743
784.2	8.922
784.4	9.313
784.6	9.574
784.8	9.925
785.0	10.14
785.2	10.49
785.4	10.85
785.6	11.24
785.8	11.66
786.0	12.14
786.2	12.55
786.4	13.12
786.6	13.46
786.8	13.76
787.0	14.15
787.2	14.45
787.4	14.85
787.6	15.34
787.8	15.94
788.0	16.63
788.2	17.48
788.4	17.79
788.6	18.31
788.8	18.63
789.0	19.32
789.2	20.09
789.4	21.06
789.6	21.80
789.8	22.61
790.0	23.21
790.2	24.25
790.4	25.07
790.6	26.09
790.8	27.33
791.0	28.16
791.2	28.82
791.4	29.62
791.6	30.35
791.8	31.51
792.0	32.53
792.2	33.32
792.4	34.46
792.6	35.71
792.8	36.88
793.0	38.11
793.2	38.92
793.4	39.45
793.6	40.71
793.8	41.91
794.0	43.49
794.2	45.11
794.4	46.58
794.6	47.26
794.8	48.45
795.0	49.27
795.2	50.78
795.4	52.21
795.6	53.66
795.8	55.02
796.0	56.83
796.2	58.24
796.4	59.33
796.6	60.52
796.8	61.21
797.0	62.76
797.2	64.34
797.4	65.52
797.6	66.19
797.8	67.39
798.0	68.12
798.2	69.62
798.4	70.88
798.6	72.23
798.8	73.51
799.0	74.79
799.2	75.89
799.4	77.92
799.6	79.55
799.8	80.43
800.0	80.09

