Sample:	'20211010A(EM)
File name:	B-NI 11 SYUAN.FDS
Run date:	'11:24:56, 06/20/2023
Operator:	Administrator
Comment:	'

Instrument
Model:	F-4700 FL Spectrophotometer
Serial number:	2019-001
ROM Version:	5J24010 00

Instrument parameters
Measurement type:	Wavelength scan
Scan mode:	Emission
Data mode:	Fluorescence
EX WL:	350.0 nm
EM  Start WL:	370.0 nm
EM  End WL:	700.0 nm
Scan speed:	1200 nm/min
Delay:	0.0 s
EX Slit:	10.0 nm
EM Slit:	10.0 nm
PMT Voltage:	305 V
Response:	0.002 s
Corrected spectra:	Off
Shutter control:	On

Processing performed
Savitsky-Golay smoothed
Smoothing order:	3
Number of points:	7
Number of times:	1

Peak integration
Integration method:	Rectangular
Sensitivity:	1
Threshold:	1.000

Peaks
No.	Start(nm)	Apex(nm)	End(nm)	Height(Data)	Valley(nm)	Valley(Data)
1	370.0	435.8	436.6	1752	436.6	1740
2	436.6	437.6	700.0	1750	700.0	1.172

Data points
nm	Data
370.0	5.007
370.2	5.064
370.4	5.168
370.6	5.323
370.8	5.609
371.0	5.784
371.2	5.941
371.4	6.076
371.6	6.215
371.8	6.340
372.0	6.622
372.2	6.800
372.4	6.986
372.6	7.183
372.8	7.420
373.0	7.673
373.2	7.927
373.4	8.116
373.6	8.308
373.8	8.578
374.0	8.883
374.2	9.192
374.4	9.435
374.6	9.664
374.8	9.939
375.0	10.36
375.2	10.82
375.4	11.33
375.6	11.87
375.8	12.26
376.0	12.60
376.2	12.85
376.4	13.05
376.6	13.45
376.8	14.12
377.0	14.81
377.2	15.54
377.4	16.03
377.6	16.42
377.8	16.86
378.0	17.42
378.2	18.10
378.4	18.77
378.6	19.32
378.8	20.01
379.0	20.70
379.2	21.38
379.4	22.16
379.6	23.00
379.8	23.81
380.0	24.74
380.2	25.60
380.4	26.48
380.6	27.27
380.8	28.25
381.0	29.22
381.2	30.33
381.4	31.61
381.6	32.95
381.8	34.14
382.0	35.22
382.2	36.22
382.4	37.47
382.6	38.76
382.8	40.19
383.0	41.71
383.2	43.12
383.4	44.80
383.6	46.50
383.8	48.11
384.0	49.60
384.2	51.22
384.4	53.12
384.6	55.23
384.8	57.45
385.0	59.71
385.2	61.63
385.4	63.55
385.6	65.80
385.8	68.17
386.0	70.86
386.2	73.72
386.4	76.15
386.6	78.28
386.8	80.52
387.0	82.95
387.2	85.55
387.4	88.71
387.6	91.86
387.8	95.16
388.0	98.26
388.2	101.4
388.4	104.6
388.6	107.7
388.8	110.8
389.0	114.6
389.2	118.2
389.4	122.5
389.6	126.6
389.8	130.7
390.0	134.5
390.2	138.8
390.4	142.9
390.6	147.4
390.8	151.5
391.0	155.9
391.2	160.7
391.4	165.7
391.6	170.4
391.8	175.6
392.0	180.7
392.2	186.2
392.4	191.8
392.6	197.3
392.8	202.2
393.0	207.9
393.2	213.1
393.4	218.7
393.6	224.7
393.8	230.7
394.0	236.9
394.2	243.5
394.4	250.0
394.6	256.0
394.8	262.7
395.0	270.1
395.2	277.3
395.4	284.8
395.6	292.5
395.8	299.6
396.0	306.6
396.2	315.0
396.4	322.3
396.6	329.8
396.8	337.3
397.0	344.7
397.2	352.4
397.4	360.8
397.6	369.8
397.8	377.9
398.0	385.9
398.2	393.5
398.4	401.3
398.6	410.1
398.8	420.4
399.0	429.8
399.2	439.6
399.4	449.0
399.6	457.8
399.8	467.7
400.0	477.5
400.2	487.4
400.4	498.7
400.6	508.3
400.8	517.3
401.0	527.0
401.2	536.5
401.4	546.7
401.6	558.2
401.8	567.6
402.0	577.6
402.2	587.7
402.4	598.3
402.6	608.0
402.8	618.8
403.0	629.0
403.2	639.0
403.4	650.1
403.6	660.6
403.8	669.7
404.0	680.0
404.2	689.8
404.4	700.3
404.6	712.6
404.8	722.7
405.0	733.8
405.2	745.4
405.4	756.4
405.6	768.1
405.8	780.6
406.0	790.8
406.2	802.5
406.4	812.0
406.6	822.3
406.8	833.2
407.0	844.5
407.2	854.5
407.4	863.4
407.6	872.2
407.8	884.8
408.0	896.4
408.2	908.8
408.4	919.8
408.6	929.9
408.8	941.0
409.0	953.4
409.2	963.4
409.4	974.3
409.6	984.8
409.8	995.8
410.0	1007
410.2	1018
410.4	1027
410.6	1037
410.8	1047
411.0	1056
411.2	1066
411.4	1076
411.6	1086
411.8	1097
412.0	1109
412.2	1118
412.4	1127
412.6	1138
412.8	1147
413.0	1157
413.2	1170
413.4	1178
413.6	1187
413.8	1197
414.0	1207
414.2	1214
414.4	1222
414.6	1228
414.8	1237
415.0	1248
415.2	1260
415.4	1271
415.6	1278
415.8	1285
416.0	1293
416.2	1303
416.4	1311
416.6	1320
416.8	1328
417.0	1335
417.2	1343
417.4	1351
417.6	1358
417.8	1366
418.0	1378
418.2	1388
418.4	1397
418.6	1405
418.8	1410
419.0	1416
419.2	1423
419.4	1431
419.6	1439
419.8	1449
420.0	1456
420.2	1464
420.4	1470
420.6	1475
420.8	1478
421.0	1488
421.2	1494
421.4	1499
421.6	1507
421.8	1514
422.0	1522
422.2	1530
422.4	1533
422.6	1537
422.8	1543
423.0	1548
423.2	1556
423.4	1559
423.6	1562
423.8	1568
424.0	1576
424.2	1583
424.4	1588
424.6	1592
424.8	1598
425.0	1605
425.2	1611
425.4	1616
425.6	1620
425.8	1622
426.0	1625
426.2	1630
426.4	1635
426.6	1642
426.8	1647
427.0	1650
427.2	1651
427.4	1656
427.6	1659
427.8	1662
428.0	1665
428.2	1669
428.4	1673
428.6	1675
428.8	1677
429.0	1679
429.2	1682
429.4	1686
429.6	1692
429.8	1695
430.0	1699
430.2	1703
430.4	1705
430.6	1706
430.8	1709
431.0	1711
431.2	1715
431.4	1718
431.6	1720
431.8	1722
432.0	1725
432.2	1729
432.4	1733
432.6	1733
432.8	1733
433.0	1733
433.2	1732
433.4	1735
433.6	1737
433.8	1739
434.0	1741
434.2	1740
434.4	1741
434.6	1744
434.8	1746
435.0	1744
435.2	1745
435.4	1745
435.6	1749
435.8	1752
436.0	1748
436.2	1741
436.4	1742
436.6	1740
436.8	1741
437.0	1743
437.2	1744
437.4	1745
437.6	1750
437.8	1749
438.0	1749
438.2	1747
438.4	1744
438.6	1742
438.8	1741
439.0	1737
439.2	1738
439.4	1739
439.6	1735
439.8	1733
440.0	1732
440.2	1730
440.4	1733
440.6	1733
440.8	1729
441.0	1727
441.2	1725
441.4	1723
441.6	1722
441.8	1714
442.0	1711
442.2	1709
442.4	1708
442.6	1709
442.8	1707
443.0	1700
443.2	1696
443.4	1693
443.6	1691
443.8	1691
444.0	1687
444.2	1685
444.4	1683
444.6	1680
444.8	1675
445.0	1669
445.2	1663
445.4	1660
445.6	1660
445.8	1658
446.0	1657
446.2	1653
446.4	1652
446.6	1645
446.8	1640
447.0	1638
447.2	1635
447.4	1634
447.6	1632
447.8	1628
448.0	1622
448.2	1617
448.4	1611
448.6	1610
448.8	1606
449.0	1605
449.2	1602
449.4	1599
449.6	1593
449.8	1586
450.0	1580
450.2	1572
450.4	1570
450.6	1569
450.8	1567
451.0	1563
451.2	1560
451.4	1554
451.6	1549
451.8	1542
452.0	1536
452.2	1529
452.4	1526
452.6	1523
452.8	1520
453.0	1517
453.2	1514
453.4	1510
453.6	1506
453.8	1499
454.0	1493
454.2	1485
454.4	1480
454.6	1477
454.8	1474
455.0	1469
455.2	1463
455.4	1454
455.6	1447
455.8	1444
456.0	1440
456.2	1440
456.4	1434
456.6	1429
456.8	1423
457.0	1418
457.2	1412
457.4	1410
457.6	1405
457.8	1400
458.0	1397
458.2	1392
458.4	1385
458.6	1379
458.8	1375
459.0	1366
459.2	1363
459.4	1359
459.6	1352
459.8	1347
460.0	1344
460.2	1341
460.4	1337
460.6	1329
460.8	1320
461.0	1314
461.2	1309
461.4	1307
461.6	1302
461.8	1297
462.0	1292
462.2	1288
462.4	1281
462.6	1272
462.8	1268
463.0	1265
463.2	1261
463.4	1256
463.6	1247
463.8	1239
464.0	1232
464.2	1230
464.4	1228
464.6	1223
464.8	1219
465.0	1214
465.2	1205
465.4	1202
465.6	1198
465.8	1193
466.0	1190
466.2	1188
466.4	1182
466.6	1176
466.8	1170
467.0	1161
467.2	1154
467.4	1149
467.6	1146
467.8	1141
468.0	1136
468.2	1129
468.4	1123
468.6	1118
468.8	1114
469.0	1109
469.2	1104
469.4	1097
469.6	1092
469.8	1086
470.0	1082
470.2	1079
470.4	1076
470.6	1072
470.8	1066
471.0	1060
471.2	1052
471.4	1046
471.6	1042
471.8	1036
472.0	1031
472.2	1026
472.4	1020
472.6	1017
472.8	1014
473.0	1009
473.2	1004
473.4	997.8
473.6	994.1
473.8	989.8
474.0	985.4
474.2	979.9
474.4	973.3
474.6	967.3
474.8	964.1
475.0	957.6
475.2	954.1
475.4	950.9
475.6	945.6
475.8	942.6
476.0	938.3
476.2	932.6
476.4	928.5
476.6	923.2
476.8	918.2
477.0	914.5
477.2	908.2
477.4	903.5
477.6	899.4
477.8	895.7
478.0	892.3
478.2	888.5
478.4	883.5
478.6	877.8
478.8	873.0
479.0	868.9
479.2	863.3
479.4	860.5
479.6	857.8
479.8	854.1
480.0	850.4
480.2	846.5
480.4	841.9
480.6	838.0
480.8	832.2
481.0	827.1
481.2	821.8
481.4	817.7
481.6	816.1
481.8	814.1
482.0	810.1
482.2	806.8
482.4	803.8
482.6	799.1
482.8	795.0
483.0	790.1
483.2	784.1
483.4	778.7
483.6	775.3
483.8	770.4
484.0	766.6
484.2	763.7
484.4	760.9
484.6	757.2
484.8	753.9
485.0	749.9
485.2	745.7
485.4	742.0
485.6	737.6
485.8	733.6
486.0	730.3
486.2	728.5
486.4	725.3
486.6	721.9
486.8	718.6
487.0	713.9
487.2	709.8
487.4	705.4
487.6	700.6
487.8	696.4
488.0	693.5
488.2	690.7
488.4	688.6
488.6	683.9
488.8	680.4
489.0	676.9
489.2	672.4
489.4	670.7
489.6	668.2
489.8	664.2
490.0	660.8
490.2	656.4
490.4	651.7
490.6	648.7
490.8	644.7
491.0	640.6
491.2	637.4
491.4	634.6
491.6	633.3
491.8	630.7
492.0	627.1
492.2	622.7
492.4	618.0
492.6	614.3
492.8	611.2
493.0	608.0
493.2	605.5
493.4	603.6
493.6	600.3
493.8	596.1
494.0	592.0
494.2	587.2
494.4	584.5
494.6	582.5
494.8	579.6
495.0	575.2
495.2	572.6
495.4	567.7
495.6	564.6
495.8	560.1
496.0	557.1
496.2	553.5
496.4	552.2
496.6	549.7
496.8	548.0
497.0	544.6
497.2	541.6
497.4	538.5
497.6	535.9
497.8	532.8
498.0	529.7
498.2	526.2
498.4	522.2
498.6	518.4
498.8	515.2
499.0	512.2
499.2	509.0
499.4	506.6
499.6	504.2
499.8	500.9
500.0	498.0
500.2	495.0
500.4	492.1
500.6	490.2
500.8	488.0
501.0	485.0
501.2	481.0
501.4	476.8
501.6	473.5
501.8	471.1
502.0	468.7
502.2	465.4
502.4	462.5
502.6	459.8
502.8	457.3
503.0	455.4
503.2	453.3
503.4	450.1
503.6	448.0
503.8	445.5
504.0	442.7
504.2	439.4
504.4	436.7
504.6	433.6
504.8	431.1
505.0	429.0
505.2	426.2
505.4	422.9
505.6	420.6
505.8	417.2
506.0	415.1
506.2	413.2
506.4	411.1
506.6	408.6
506.8	406.0
507.0	403.0
507.2	400.9
507.4	398.1
507.6	396.3
507.8	393.6
508.0	390.8
508.2	389.1
508.4	387.1
508.6	384.0
508.8	381.8
509.0	378.7
509.2	376.1
509.4	373.8
509.6	371.7
509.8	369.3
510.0	367.1
510.2	364.0
510.4	361.8
510.6	359.5
510.8	357.6
511.0	354.9
511.2	353.0
511.4	350.8
511.6	349.1
511.8	347.5
512.0	345.4
512.2	342.7
512.4	340.2
512.6	337.9
512.8	336.0
513.0	334.1
513.2	332.6
513.4	331.1
513.6	328.7
513.8	326.4
514.0	324.8
514.2	322.3
514.4	320.1
514.6	317.3
514.8	315.1
515.0	313.0
515.2	311.6
515.4	309.8
515.6	308.1
515.8	305.7
516.0	303.2
516.2	300.8
516.4	298.9
516.6	297.7
516.8	296.5
517.0	294.7
517.2	291.9
517.4	289.6
517.6	287.8
517.8	286.0
518.0	284.2
518.2	282.4
518.4	280.8
518.6	279.7
518.8	278.7
519.0	276.6
519.2	274.2
519.4	272.2
519.6	270.4
519.8	268.9
520.0	267.8
520.2	265.5
520.4	264.0
520.6	262.0
520.8	260.3
521.0	258.3
521.2	257.0
521.4	255.0
521.6	254.1
521.8	252.3
522.0	250.5
522.2	248.4
522.4	246.8
522.6	245.4
522.8	244.4
523.0	242.9
523.2	241.5
523.4	239.5
523.6	237.7
523.8	236.1
524.0	234.3
524.2	232.9
524.4	231.3
524.6	229.3
524.8	227.8
525.0	226.5
525.2	225.1
525.4	223.9
525.6	222.7
525.8	222.0
526.0	221.1
526.2	219.6
526.4	217.5
526.6	215.3
526.8	213.5
527.0	212.0
527.2	210.9
527.4	209.7
527.6	208.2
527.8	207.0
528.0	205.7
528.2	203.8
528.4	202.8
528.6	201.9
528.8	200.9
529.0	200.0
529.2	198.9
529.4	197.0
529.6	195.4
529.8	193.7
530.0	192.3
530.2	191.2
530.4	190.1
530.6	188.7
530.8	187.4
531.0	186.4
531.2	185.2
531.4	184.1
531.6	182.8
531.8	181.3
532.0	179.7
532.2	178.7
532.4	177.7
532.6	176.7
532.8	175.8
533.0	174.2
533.2	172.9
533.4	171.7
533.6	170.7
533.8	169.6
534.0	168.8
534.2	168.0
534.4	167.1
534.6	165.9
534.8	164.9
535.0	163.5
535.2	161.9
535.4	160.7
535.6	159.3
535.8	158.4
536.0	158.0
536.2	157.1
536.4	155.9
536.6	154.7
536.8	153.6
537.0	152.7
537.2	152.0
537.4	150.8
537.6	149.4
537.8	148.6
538.0	147.6
538.2	146.8
538.4	145.6
538.6	144.7
538.8	143.7
539.0	143.2
539.2	142.5
539.4	141.7
539.6	140.1
539.8	139.2
540.0	138.1
540.2	137.3
540.4	136.7
540.6	135.8
540.8	134.7
541.0	133.6
541.2	132.4
541.4	131.3
541.6	130.5
541.8	129.8
542.0	129.3
542.2	128.4
542.4	127.3
542.6	126.4
542.8	125.6
543.0	124.9
543.2	124.4
543.4	123.6
543.6	122.7
543.8	121.6
544.0	120.9
544.2	120.1
544.4	119.2
544.6	118.7
544.8	117.9
545.0	117.0
545.2	116.4
545.4	115.5
545.6	114.8
545.8	113.8
546.0	112.9
546.2	112.3
546.4	111.5
546.6	110.8
546.8	110.3
547.0	109.3
547.2	108.6
547.4	108.0
547.6	107.2
547.8	106.5
548.0	105.8
548.2	104.9
548.4	104.1
548.6	103.4
548.8	102.7
549.0	102.2
549.2	101.7
549.4	101.0
549.6	100.3
549.8	99.48
550.0	98.59
550.2	97.99
550.4	97.63
550.6	96.99
550.8	96.45
551.0	95.91
551.2	94.96
551.4	94.10
551.6	93.33
551.8	92.48
552.0	91.68
552.2	91.32
552.4	90.81
552.6	90.32
552.8	89.82
553.0	89.38
553.2	88.49
553.4	87.98
553.6	87.53
553.8	86.93
554.0	86.48
554.2	86.18
554.4	85.26
554.6	84.76
554.8	84.15
555.0	83.48
555.2	82.92
555.4	82.67
555.6	82.04
555.8	81.81
556.0	81.27
556.2	80.66
556.4	79.79
556.6	79.04
556.8	78.15
557.0	77.64
557.2	77.05
557.4	76.83
557.6	76.14
557.8	75.50
558.0	74.98
558.2	74.65
558.4	74.34
558.6	74.00
558.8	73.19
559.0	72.65
559.2	72.03
559.4	71.51
559.6	71.16
559.8	70.78
560.0	70.45
560.2	70.10
560.4	69.29
560.6	68.75
560.8	68.12
561.0	67.74
561.2	67.32
561.4	66.89
561.6	66.35
561.8	66.07
562.0	65.49
562.2	65.19
562.4	64.90
562.6	64.59
562.8	64.05
563.0	63.75
563.2	63.15
563.4	62.63
563.6	62.33
563.8	61.84
564.0	61.25
564.2	60.90
564.4	60.49
564.6	59.82
564.8	59.46
565.0	59.06
565.2	58.71
565.4	58.28
565.6	58.00
565.8	57.54
566.0	57.17
566.2	56.82
566.4	56.60
566.6	56.17
566.8	55.68
567.0	55.50
567.2	55.11
567.4	54.89
567.6	54.51
567.8	53.98
568.0	53.40
568.2	53.03
568.4	52.58
568.6	52.37
568.8	52.03
569.0	51.68
569.2	51.35
569.4	51.08
569.6	50.82
569.8	50.42
570.0	50.03
570.2	49.45
570.4	49.13
570.6	48.88
570.8	48.56
571.0	48.00
571.2	47.69
571.4	47.15
571.6	47.02
571.8	46.95
572.0	46.68
572.2	46.35
572.4	46.09
572.6	45.64
572.8	45.34
573.0	45.11
573.2	44.85
573.4	44.51
573.6	44.14
573.8	43.96
574.0	43.62
574.2	43.25
574.4	43.00
574.6	42.60
574.8	42.17
575.0	41.83
575.2	41.45
575.4	41.15
575.6	41.01
575.8	41.02
576.0	40.74
576.2	40.38
576.4	40.11
576.6	39.79
576.8	39.44
577.0	39.26
577.2	38.83
577.4	38.54
577.6	38.27
577.8	38.11
578.0	37.86
578.2	37.78
578.4	37.48
578.6	37.21
578.8	37.04
579.0	36.84
579.2	36.60
579.4	36.31
579.6	36.00
579.8	35.60
580.0	35.39
580.2	35.11
580.4	34.92
580.6	34.69
580.8	34.54
581.0	34.31
581.2	34.04
581.4	33.79
581.6	33.58
581.8	33.35
582.0	33.01
582.2	32.77
582.4	32.64
582.6	32.42
582.8	32.19
583.0	31.98
583.2	31.73
583.4	31.56
583.6	31.53
583.8	31.55
584.0	31.37
584.2	30.99
584.4	30.74
584.6	30.30
584.8	30.09
585.0	30.05
585.2	29.76
585.4	29.50
585.6	29.39
585.8	29.18
586.0	29.10
586.2	28.92
586.4	28.51
586.6	28.37
586.8	28.15
587.0	28.04
587.2	27.86
587.4	27.65
587.6	27.33
587.8	27.25
588.0	27.06
588.2	27.03
588.4	27.03
588.6	26.93
588.8	26.71
589.0	26.40
589.2	25.93
589.4	25.62
589.6	25.61
589.8	25.45
590.0	25.39
590.2	25.15
590.4	24.82
590.6	24.65
590.8	24.58
591.0	24.41
591.2	24.48
591.4	24.35
591.6	24.21
591.8	24.03
592.0	23.96
592.2	23.74
592.4	23.67
592.6	23.40
592.8	23.18
593.0	22.88
593.2	22.84
593.4	22.49
593.6	22.32
593.8	22.09
594.0	21.89
594.2	21.87
594.4	21.78
594.6	21.68
594.8	21.56
595.0	21.33
595.2	21.15
595.4	21.13
595.6	20.95
595.8	20.93
596.0	20.69
596.2	20.44
596.4	20.36
596.6	20.31
596.8	20.16
597.0	20.07
597.2	19.74
597.4	19.62
597.6	19.65
597.8	19.66
598.0	19.57
598.2	19.43
598.4	19.09
598.6	18.91
598.8	18.80
599.0	18.81
599.2	18.79
599.4	18.75
599.6	18.62
599.8	18.41
600.0	18.18
600.2	17.93
600.4	17.73
600.6	17.63
600.8	17.51
601.0	17.48
601.2	17.53
601.4	17.34
601.6	17.18
601.8	17.10
602.0	16.93
602.2	16.91
602.4	16.91
602.6	16.75
602.8	16.57
603.0	16.52
603.2	16.40
603.4	16.34
603.6	16.28
603.8	16.16
604.0	16.02
604.2	15.88
604.4	15.70
604.6	15.50
604.8	15.48
605.0	15.35
605.2	15.29
605.4	15.16
605.6	15.01
605.8	14.79
606.0	14.86
606.2	14.77
606.4	14.74
606.6	14.61
606.8	14.46
607.0	14.27
607.2	14.19
607.4	14.07
607.6	13.99
607.8	13.91
608.0	13.85
608.2	13.81
608.4	13.69
608.6	13.62
608.8	13.57
609.0	13.48
609.2	13.31
609.4	13.22
609.6	13.13
609.8	13.06
610.0	12.97
610.2	12.92
610.4	12.82
610.6	12.72
610.8	12.69
611.0	12.66
611.2	12.58
611.4	12.57
611.6	12.45
611.8	12.22
612.0	12.05
612.2	11.98
612.4	11.84
612.6	11.89
612.8	11.92
613.0	11.85
613.2	11.72
613.4	11.62
613.6	11.39
613.8	11.33
614.0	11.31
614.2	11.23
614.4	11.12
614.6	11.03
614.8	10.97
615.0	10.87
615.2	10.79
615.4	10.79
615.6	10.71
615.8	10.64
616.0	10.65
616.2	10.57
616.4	10.49
616.6	10.39
616.8	10.19
617.0	10.09
617.2	10.07
617.4	10.05
617.6	10.07
617.8	10.02
618.0	9.909
618.2	9.830
618.4	9.780
618.6	9.719
618.8	9.635
619.0	9.581
619.2	9.483
619.4	9.324
619.6	9.293
619.8	9.269
620.0	9.309
620.2	9.269
620.4	9.224
620.6	9.048
620.8	8.986
621.0	8.909
621.2	8.889
621.4	8.823
621.6	8.759
621.8	8.692
622.0	8.679
622.2	8.603
622.4	8.547
622.6	8.502
622.8	8.435
623.0	8.429
623.2	8.387
623.4	8.310
623.6	8.302
623.8	8.248
624.0	8.143
624.2	8.076
624.4	7.967
624.6	7.844
624.8	7.824
625.0	7.767
625.2	7.709
625.4	7.685
625.6	7.672
625.8	7.572
626.0	7.567
626.2	7.457
626.4	7.418
626.6	7.312
626.8	7.231
627.0	7.191
627.2	7.200
627.4	7.158
627.6	7.088
627.8	6.977
628.0	6.879
628.2	6.881
628.4	6.895
628.6	6.893
628.8	6.845
629.0	6.801
629.2	6.806
629.4	6.818
629.6	6.797
629.8	6.749
630.0	6.647
630.2	6.517
630.4	6.483
630.6	6.420
630.8	6.342
631.0	6.368
631.2	6.349
631.4	6.291
631.6	6.204
631.8	6.103
632.0	6.076
632.2	6.131
632.4	6.170
632.6	6.188
632.8	6.149
633.0	6.107
633.2	6.005
633.4	5.890
633.6	5.767
633.8	5.689
634.0	5.637
634.2	5.704
634.4	5.713
634.6	5.736
634.8	5.665
635.0	5.575
635.2	5.472
635.4	5.478
635.6	5.422
635.8	5.424
636.0	5.325
636.2	5.300
636.4	5.255
636.6	5.216
636.8	5.170
637.0	5.164
637.2	5.129
637.4	5.115
637.6	5.038
637.8	4.967
638.0	4.958
638.2	4.956
638.4	4.953
638.6	4.961
638.8	4.967
639.0	4.957
639.2	4.981
639.4	4.917
639.6	4.833
639.8	4.751
640.0	4.730
640.2	4.640
640.4	4.622
640.6	4.565
640.8	4.529
641.0	4.539
641.2	4.553
641.4	4.509
641.6	4.505
641.8	4.509
642.0	4.435
642.2	4.418
642.4	4.372
642.6	4.388
642.8	4.368
643.0	4.360
643.2	4.338
643.4	4.294
643.6	4.212
643.8	4.164
644.0	4.132
644.2	4.081
644.4	4.068
644.6	4.056
644.8	4.024
645.0	4.026
645.2	3.999
645.4	3.971
645.6	3.886
645.8	3.817
646.0	3.820
646.2	3.838
646.4	3.833
646.6	3.866
646.8	3.803
647.0	3.711
647.2	3.665
647.4	3.644
647.6	3.638
647.8	3.657
648.0	3.636
648.2	3.627
648.4	3.575
648.6	3.585
648.8	3.528
649.0	3.555
649.2	3.522
649.4	3.531
649.6	3.476
649.8	3.471
650.0	3.381
650.2	3.359
650.4	3.325
650.6	3.363
650.8	3.401
651.0	3.406
651.2	3.349
651.4	3.264
651.6	3.211
651.8	3.181
652.0	3.182
652.2	3.185
652.4	3.179
652.6	3.176
652.8	3.158
653.0	3.152
653.2	3.141
653.4	3.136
653.6	3.088
653.8	3.058
654.0	3.029
654.2	3.052
654.4	3.030
654.6	3.010
654.8	2.988
655.0	3.016
655.2	3.022
655.4	3.026
655.6	2.925
655.8	2.850
656.0	2.742
656.2	2.725
656.4	2.701
656.6	2.736
656.8	2.753
657.0	2.809
657.2	2.767
657.4	2.775
657.6	2.736
657.8	2.700
658.0	2.649
658.2	2.644
658.4	2.604
658.6	2.600
658.8	2.577
659.0	2.571
659.2	2.569
659.4	2.615
659.6	2.621
659.8	2.569
660.0	2.526
660.2	2.526
660.4	2.525
660.6	2.468
660.8	2.454
661.0	2.414
661.2	2.427
661.4	2.462
661.6	2.457
661.8	2.397
662.0	2.375
662.2	2.376
662.4	2.364
662.6	2.314
662.8	2.264
663.0	2.277
663.2	2.262
663.4	2.282
663.6	2.228
663.8	2.205
664.0	2.154
664.2	2.133
664.4	2.131
664.6	2.170
664.8	2.180
665.0	2.236
665.2	2.216
665.4	2.152
665.6	2.114
665.8	2.098
666.0	2.120
666.2	2.118
666.4	2.094
666.6	2.073
666.8	2.082
667.0	2.097
667.2	2.098
667.4	2.063
667.6	2.003
667.8	1.995
668.0	2.028
668.2	2.029
668.4	2.011
668.6	1.993
668.8	1.969
669.0	1.986
669.2	2.003
669.4	1.967
669.6	1.941
669.8	1.891
670.0	1.891
670.2	1.874
670.4	1.892
670.6	1.860
670.8	1.837
671.0	1.793
671.2	1.806
671.4	1.811
671.6	1.819
671.8	1.805
672.0	1.759
672.2	1.730
672.4	1.742
672.6	1.809
672.8	1.823
673.0	1.799
673.2	1.733
673.4	1.710
673.6	1.670
673.8	1.676
674.0	1.674
674.2	1.682
674.4	1.695
674.6	1.735
674.8	1.678
675.0	1.633
675.2	1.605
675.4	1.615
675.6	1.606
675.8	1.601
676.0	1.520
676.2	1.507
676.4	1.521
676.6	1.554
676.8	1.547
677.0	1.545
677.2	1.476
677.4	1.470
677.6	1.452
677.8	1.475
678.0	1.447
678.2	1.434
678.4	1.422
678.6	1.459
678.8	1.435
679.0	1.487
679.2	1.490
679.4	1.453
679.6	1.442
679.8	1.433
680.0	1.400
680.2	1.433
680.4	1.426
680.6	1.444
680.8	1.426
681.0	1.400
681.2	1.385
681.4	1.393
681.6	1.392
681.8	1.456
682.0	1.433
682.2	1.422
682.4	1.372
682.6	1.377
682.8	1.371
683.0	1.371
683.2	1.331
683.4	1.317
683.6	1.261
683.8	1.265
684.0	1.265
684.2	1.322
684.4	1.346
684.6	1.395
684.8	1.391
685.0	1.372
685.2	1.338
685.4	1.360
685.6	1.329
685.8	1.310
686.0	1.256
686.2	1.251
686.4	1.201
686.6	1.193
686.8	1.206
687.0	1.255
687.2	1.247
687.4	1.298
687.6	1.278
687.8	1.237
688.0	1.228
688.2	1.238
688.4	1.194
688.6	1.203
688.8	1.187
689.0	1.162
689.2	1.212
689.4	1.233
689.6	1.251
689.8	1.276
690.0	1.226
690.2	1.185
690.4	1.187
690.6	1.185
690.8	1.184
691.0	1.214
691.2	1.185
691.4	1.210
691.6	1.176
691.8	1.172
692.0	1.121
692.2	1.131
692.4	1.109
692.6	1.128
692.8	1.140
693.0	1.175
693.2	1.151
693.4	1.193
693.6	1.191
693.8	1.182
694.0	1.170
694.2	1.147
694.4	1.123
694.6	1.126
694.8	1.149
695.0	1.179
695.2	1.167
695.4	1.169
695.6	1.168
695.8	1.140
696.0	1.118
696.2	1.128
696.4	1.102
696.6	1.127
696.8	1.123
697.0	1.131
697.2	1.125
697.4	1.160
697.6	1.142
697.8	1.135
698.0	1.124
698.2	1.114
698.4	1.124
698.6	1.143
698.8	1.127
699.0	1.088
699.2	1.095
699.4	1.097
699.6	1.147
699.8	1.182
700.0	1.172

