Sample:	'20211010A(EM)
File name:	B-NI 9.FDS
Run date:	'10:15:21, 06/20/2023
Operator:	Administrator
Comment:	'

Instrument
Model:	F-4700 FL Spectrophotometer
Serial number:	2019-001
ROM Version:	5J24010 00

Instrument parameters
Measurement type:	Wavelength scan
Scan mode:	Emission
Data mode:	Fluorescence
EX WL:	350.0 nm
EM  Start WL:	370.0 nm
EM  End WL:	700.0 nm
Scan speed:	1200 nm/min
Delay:	0.0 s
EX Slit:	10.0 nm
EM Slit:	10.0 nm
PMT Voltage:	312 V
Response:	0.002 s
Corrected spectra:	Off
Shutter control:	On

Processing performed
Savitsky-Golay smoothed
Smoothing order:	3
Number of points:	7
Number of times:	1

Peak integration
Integration method:	Rectangular
Sensitivity:	1
Threshold:	1.000

Peaks
No.	Start(nm)	Apex(nm)	End(nm)	Height(Data)	Valley(nm)	Valley(Data)
1	370.0	456.2	457.2	946.2	457.2	943.2
2	457.2	459.8	461.0	950.0	461.0	943.9
3	461.0	461.8	700.0	948.0	700.0	1.283

Data points
nm	Data
370.0	0.931
370.2	0.978
370.4	0.969
370.6	0.930
370.8	0.869
371.0	0.910
371.2	0.933
371.4	0.988
371.6	1.003
371.8	1.029
372.0	0.988
372.2	0.989
372.4	1.027
372.6	1.040
372.8	1.045
373.0	1.088
373.2	1.095
373.4	1.096
373.6	1.163
373.8	1.153
374.0	1.120
374.2	1.109
374.4	1.093
374.6	1.121
374.8	1.137
375.0	1.174
375.2	1.166
375.4	1.207
375.6	1.191
375.8	1.253
376.0	1.272
376.2	1.254
376.4	1.232
376.6	1.300
376.8	1.303
377.0	1.384
377.2	1.420
377.4	1.460
377.6	1.467
377.8	1.530
378.0	1.503
378.2	1.504
378.4	1.487
378.6	1.517
378.8	1.533
379.0	1.630
379.2	1.618
379.4	1.658
379.6	1.689
379.8	1.695
380.0	1.689
380.2	1.705
380.4	1.717
380.6	1.763
380.8	1.799
381.0	1.887
381.2	1.918
381.4	1.917
381.6	1.917
381.8	1.929
382.0	1.918
382.2	1.977
382.4	2.005
382.6	2.071
382.8	2.114
383.0	2.192
383.2	2.259
383.4	2.357
383.6	2.338
383.8	2.383
384.0	2.406
384.2	2.474
384.4	2.539
384.6	2.626
384.8	2.656
385.0	2.700
385.2	2.710
385.4	2.766
385.6	2.826
385.8	2.927
386.0	3.048
386.2	3.128
386.4	3.185
386.6	3.248
386.8	3.292
387.0	3.321
387.2	3.342
387.4	3.388
387.6	3.464
387.8	3.547
388.0	3.636
388.2	3.750
388.4	3.852
388.6	3.929
388.8	3.983
389.0	4.008
389.2	4.092
389.4	4.241
389.6	4.396
389.8	4.560
390.0	4.695
390.2	4.795
390.4	4.817
390.6	4.883
390.8	5.017
391.0	5.180
391.2	5.427
391.4	5.639
391.6	5.726
391.8	5.932
392.0	6.047
392.2	6.121
392.4	6.322
392.6	6.489
392.8	6.613
393.0	6.872
393.2	7.003
393.4	7.192
393.6	7.379
393.8	7.613
394.0	7.771
394.2	8.052
394.4	8.192
394.6	8.413
394.8	8.696
395.0	9.044
395.2	9.420
395.4	9.799
395.6	9.981
395.8	10.19
396.0	10.42
396.2	10.74
396.4	11.16
396.6	11.48
396.8	11.79
397.0	12.09
397.2	12.40
397.4	12.79
397.6	13.29
397.8	13.78
398.0	14.26
398.2	14.75
398.4	15.28
398.6	15.79
398.8	16.38
399.0	16.97
399.2	17.44
399.4	17.89
399.6	18.32
399.8	18.96
400.0	19.59
400.2	20.34
400.4	20.95
400.6	21.62
400.8	22.25
401.0	23.23
401.2	23.88
401.4	24.69
401.6	25.41
401.8	26.15
402.0	27.10
402.2	28.26
402.4	28.94
402.6	29.91
402.8	30.86
403.0	31.79
403.2	33.12
403.4	34.46
403.6	35.34
403.8	36.47
404.0	37.61
404.2	38.76
404.4	39.99
404.6	41.28
404.8	42.16
405.0	43.62
405.2	45.06
405.4	46.69
405.6	48.12
405.8	49.67
406.0	50.98
406.2	52.92
406.4	54.60
406.6	56.28
406.8	57.75
407.0	59.39
407.2	61.18
407.4	63.23
407.6	65.18
407.8	67.00
408.0	68.85
408.2	70.71
408.4	72.73
408.6	75.02
408.8	76.93
409.0	79.21
409.2	81.59
409.4	84.03
409.6	86.31
409.8	89.01
410.0	91.56
410.2	94.38
410.4	97.07
410.6	99.68
410.8	102.0
411.0	104.8
411.2	107.8
411.4	111.1
411.6	113.8
411.8	116.4
412.0	119.1
412.2	122.2
412.4	125.2
412.6	128.9
412.8	131.9
413.0	135.2
413.2	138.4
413.4	141.9
413.6	145.1
413.8	148.8
414.0	151.9
414.2	155.8
414.4	159.6
414.6	163.6
414.8	167.6
415.0	171.4
415.2	174.7
415.4	178.8
415.6	182.7
415.8	187.3
416.0	191.6
416.2	195.7
416.4	199.9
416.6	203.8
416.8	207.3
417.0	211.7
417.2	215.6
417.4	219.8
417.6	224.6
417.8	228.9
418.0	233.2
418.2	238.0
418.4	242.5
418.6	247.2
418.8	251.9
419.0	256.6
419.2	261.5
419.4	266.6
419.6	271.4
419.8	276.5
420.0	282.1
420.2	286.8
420.4	291.6
420.6	296.6
420.8	301.7
421.0	307.1
421.2	312.6
421.4	317.8
421.6	322.7
421.8	327.6
422.0	333.2
422.2	338.4
422.4	343.5
422.6	349.9
422.8	355.4
423.0	360.3
423.2	365.2
423.4	369.6
423.6	374.8
423.8	380.2
424.0	386.1
424.2	391.8
424.4	397.3
424.6	402.8
424.8	408.4
425.0	413.3
425.2	419.0
425.4	424.8
425.6	430.2
425.8	435.8
426.0	441.2
426.2	446.9
426.4	452.9
426.6	458.7
426.8	464.8
427.0	470.3
427.2	474.9
427.4	479.5
427.6	484.7
427.8	490.8
428.0	497.5
428.2	503.0
428.4	507.4
428.6	512.0
428.8	517.1
429.0	522.5
429.2	528.5
429.4	534.1
429.6	539.4
429.8	545.6
430.0	551.2
430.2	555.2
430.4	560.0
430.6	564.8
430.8	570.7
431.0	576.6
431.2	583.5
431.4	588.8
431.6	594.6
431.8	600.7
432.0	605.8
432.2	609.5
432.4	613.1
432.6	617.5
432.8	622.8
433.0	629.0
433.2	633.9
433.4	638.2
433.6	642.4
433.8	647.5
434.0	651.9
434.2	658.4
434.4	662.6
434.6	667.1
434.8	671.4
435.0	677.3
435.2	682.3
435.4	689.9
435.6	693.9
435.8	697.7
436.0	699.7
436.2	704.5
436.4	709.9
436.6	716.1
436.8	720.6
437.0	724.1
437.2	725.4
437.4	729.2
437.6	733.7
437.8	738.5
438.0	743.5
438.2	748.5
438.4	751.5
438.6	755.2
438.8	758.6
439.0	763.0
439.2	767.3
439.4	772.3
439.6	774.9
439.8	777.3
440.0	780.2
440.2	783.6
440.4	789.3
440.6	795.1
440.8	798.4
441.0	800.4
441.2	802.3
441.4	804.8
441.6	810.1
441.8	815.1
442.0	819.5
442.2	822.2
442.4	825.7
442.6	828.9
442.8	831.1
443.0	832.6
443.2	835.8
443.4	838.5
443.6	841.6
443.8	844.6
444.0	845.8
444.2	848.6
444.4	850.1
444.6	852.8
444.8	854.8
445.0	857.0
445.2	858.5
445.4	862.9
445.6	865.8
445.8	869.9
446.0	874.3
446.2	876.2
446.4	876.0
446.6	876.6
446.8	876.6
447.0	878.4
447.2	881.3
447.4	882.6
447.6	884.9
447.8	887.7
448.0	888.3
448.2	891.2
448.4	893.4
448.6	896.1
448.8	898.9
449.0	902.9
449.2	903.8
449.4	905.8
449.6	906.8
449.8	908.6
450.0	908.7
450.2	909.6
450.4	911.1
450.6	912.8
450.8	914.1
451.0	917.7
451.2	918.6
451.4	919.1
451.6	920.1
451.8	920.3
452.0	920.7
452.2	924.1
452.4	926.3
452.6	927.5
452.8	925.9
453.0	926.0
453.2	927.3
453.4	930.3
453.6	933.6
453.8	935.0
454.0	934.1
454.2	933.2
454.4	932.2
454.6	934.2
454.8	934.9
455.0	937.1
455.2	938.9
455.4	939.5
455.6	940.0
455.8	943.7
456.0	945.4
456.2	946.2
456.4	945.5
456.6	945.4
456.8	944.0
457.0	943.3
457.2	943.2
457.4	943.7
457.6	944.6
457.8	946.0
458.0	946.9
458.2	946.7
458.4	945.9
458.6	946.4
458.8	946.2
459.0	945.2
459.2	946.3
459.4	947.4
459.6	949.1
459.8	950.0
460.0	949.5
460.2	948.6
460.4	947.6
460.6	946.1
460.8	944.5
461.0	943.9
461.2	944.5
461.4	945.5
461.6	947.2
461.8	948.0
462.0	946.2
462.2	946.0
462.4	945.9
462.6	945.0
462.8	945.7
463.0	945.9
463.2	944.2
463.4	944.9
463.6	944.1
463.8	943.6
464.0	943.6
464.2	943.1
464.4	940.7
464.6	938.6
464.8	936.9
465.0	936.2
465.2	937.7
465.4	938.8
465.6	937.6
465.8	935.6
466.0	933.5
466.2	931.4
466.4	930.0
466.6	929.7
466.8	928.1
467.0	928.7
467.2	926.7
467.4	924.3
467.6	921.2
467.8	920.5
468.0	917.1
468.2	916.3
468.4	914.9
468.6	915.2
468.8	914.6
469.0	915.8
469.2	913.6
469.4	912.8
469.6	911.0
469.8	908.4
470.0	905.1
470.2	904.0
470.4	901.7
470.6	900.7
470.8	899.1
471.0	897.2
471.2	896.6
471.4	895.8
471.6	892.4
471.8	888.3
472.0	885.5
472.2	884.4
472.4	886.3
472.6	887.6
472.8	886.0
473.0	883.5
473.2	880.3
473.4	876.1
473.6	872.8
473.8	871.7
474.0	870.8
474.2	869.3
474.4	869.7
474.6	867.3
474.8	864.9
475.0	861.6
475.2	858.6
475.4	853.4
475.6	852.3
475.8	849.2
476.0	847.9
476.2	845.3
476.4	844.3
476.6	841.8
476.8	840.8
477.0	839.2
477.2	839.7
477.4	838.9
477.6	836.5
477.8	833.4
478.0	828.8
478.2	826.2
478.4	825.2
478.6	822.8
478.8	822.1
479.0	821.2
479.2	820.0
479.4	817.7
479.6	814.9
479.8	810.3
480.0	809.2
480.2	805.9
480.4	803.8
480.6	799.4
480.8	797.8
481.0	795.3
481.2	795.2
481.4	792.5
481.6	790.5
481.8	786.3
482.0	784.1
482.2	779.6
482.4	777.5
482.6	775.0
482.8	775.0
483.0	773.6
483.2	772.7
483.4	771.0
483.6	769.2
483.8	766.3
484.0	765.5
484.2	763.5
484.4	761.7
484.6	760.2
484.8	755.6
485.0	751.2
485.2	748.7
485.4	747.0
485.6	746.6
485.8	744.8
486.0	741.0
486.2	738.0
486.4	736.3
486.6	733.7
486.8	731.5
487.0	728.5
487.2	725.3
487.4	723.3
487.6	720.8
487.8	717.9
488.0	714.5
488.2	712.9
488.4	710.9
488.6	709.8
488.8	707.3
489.0	706.5
489.2	703.6
489.4	701.8
489.6	697.9
489.8	695.0
490.0	691.9
490.2	689.6
490.4	687.5
490.6	685.7
490.8	683.5
491.0	680.5
491.2	677.1
491.4	673.3
491.6	670.4
491.8	667.0
492.0	664.7
492.2	663.1
492.4	661.8
492.6	660.0
492.8	657.6
493.0	653.6
493.2	649.8
493.4	647.4
493.6	645.3
493.8	643.2
494.0	640.9
494.2	639.0
494.4	636.7
494.6	633.1
494.8	630.2
495.0	627.4
495.2	624.9
495.4	622.2
495.6	621.0
495.8	617.3
496.0	613.3
496.2	610.3
496.4	608.8
496.6	605.6
496.8	604.0
497.0	601.3
497.2	598.0
497.4	596.6
497.6	595.0
497.8	591.9
498.0	588.7
498.2	586.1
498.4	583.0
498.6	581.5
498.8	578.8
499.0	576.9
499.2	574.5
499.4	572.3
499.6	570.1
499.8	566.6
500.0	562.8
500.2	560.5
500.4	557.8
500.6	555.7
500.8	553.3
501.0	548.8
501.2	545.3
501.4	543.4
501.6	541.6
501.8	540.9
502.0	537.7
502.2	534.6
502.4	532.3
502.6	529.7
502.8	526.9
503.0	524.9
503.2	521.8
503.4	519.6
503.6	517.4
503.8	515.0
504.0	511.7
504.2	508.6
504.4	506.0
504.6	503.0
504.8	500.4
505.0	498.5
505.2	495.7
505.4	493.0
505.6	490.5
505.8	488.1
506.0	486.4
506.2	485.0
506.4	482.7
506.6	480.4
506.8	478.8
507.0	476.7
507.2	473.8
507.4	471.7
507.6	467.7
507.8	464.2
508.0	462.2
508.2	460.2
508.4	458.0
508.6	457.0
508.8	454.5
509.0	452.0
509.2	449.5
509.4	447.3
509.6	444.9
509.8	443.0
510.0	440.5
510.2	438.3
510.4	435.0
510.6	432.1
510.8	430.2
511.0	427.7
511.2	424.2
511.4	422.1
511.6	420.1
511.8	418.4
512.0	417.2
512.2	415.2
512.4	411.8
512.6	409.2
512.8	406.4
513.0	403.9
513.2	402.4
513.4	400.7
513.6	399.2
513.8	396.9
514.0	394.1
514.2	391.5
514.4	390.4
514.6	387.7
514.8	385.2
515.0	382.2
515.2	379.9
515.4	378.1
515.6	377.5
515.8	375.1
516.0	373.2
516.2	371.0
516.4	369.4
516.6	367.8
516.8	365.6
517.0	362.6
517.2	360.5
517.4	358.2
517.6	356.2
517.8	354.9
518.0	353.1
518.2	351.4
518.4	349.1
518.6	346.4
518.8	343.6
519.0	341.4
519.2	339.7
519.4	338.2
519.6	336.3
519.8	335.1
520.0	333.5
520.2	331.2
520.4	329.6
520.6	327.3
520.8	325.7
521.0	324.9
521.2	323.7
521.4	322.1
521.6	319.8
521.8	317.4
522.0	315.5
522.2	314.1
522.4	311.7
522.6	310.1
522.8	308.2
523.0	306.1
523.2	304.6
523.4	303.2
523.6	300.8
523.8	299.1
524.0	297.6
524.2	296.2
524.4	294.2
524.6	292.3
524.8	290.0
525.0	288.0
525.2	286.7
525.4	286.2
525.6	284.7
525.8	283.0
526.0	280.8
526.2	278.6
526.4	276.8
526.6	275.7
526.8	274.8
527.0	273.6
527.2	272.4
527.4	271.0
527.6	268.8
527.8	266.6
528.0	265.1
528.2	263.7
528.4	262.1
528.6	260.9
528.8	259.3
529.0	257.2
529.2	255.8
529.4	254.5
529.6	252.9
529.8	252.0
530.0	251.2
530.2	249.5
530.4	247.5
530.6	245.9
530.8	244.1
531.0	243.0
531.2	241.9
531.4	240.8
531.6	239.2
531.8	237.5
532.0	235.6
532.2	233.7
532.4	232.4
532.6	231.6
532.8	230.4
533.0	229.0
533.2	227.1
533.4	225.6
533.6	224.1
533.8	223.3
534.0	222.2
534.2	220.7
534.4	219.1
534.6	217.8
534.8	216.8
535.0	215.8
535.2	214.6
535.4	213.0
535.6	211.5
535.8	210.6
536.0	209.6
536.2	208.3
536.4	207.0
536.6	205.6
536.8	204.2
537.0	202.7
537.2	201.7
537.4	200.5
537.6	199.4
537.8	198.7
538.0	197.4
538.2	196.2
538.4	194.8
538.6	192.9
538.8	191.8
539.0	190.5
539.2	189.5
539.4	188.7
539.6	186.9
539.8	185.9
540.0	185.5
540.2	184.8
540.4	183.7
540.6	182.5
540.8	180.9
541.0	180.4
541.2	179.7
541.4	178.9
541.6	177.1
541.8	175.5
542.0	174.1
542.2	173.5
542.4	172.7
542.6	171.4
542.8	170.1
543.0	169.0
543.2	168.1
543.4	167.3
543.6	166.4
543.8	165.1
544.0	163.8
544.2	162.6
544.4	161.9
544.6	160.9
544.8	160.0
545.0	158.8
545.2	157.6
545.4	156.2
545.6	155.3
545.8	154.4
546.0	153.4
546.2	152.9
546.4	152.3
546.6	151.2
546.8	150.4
547.0	149.2
547.2	147.9
547.4	147.2
547.6	146.3
547.8	145.4
548.0	145.2
548.2	144.4
548.4	143.4
548.6	142.1
548.8	140.5
549.0	140.0
549.2	139.6
549.4	138.9
549.6	138.2
549.8	137.0
550.0	135.4
550.2	135.0
550.4	133.9
550.6	132.8
550.8	132.0
551.0	131.3
551.2	130.5
551.4	129.9
551.6	128.9
551.8	128.3
552.0	127.6
552.2	126.9
552.4	125.5
552.6	124.2
552.8	123.3
553.0	122.7
553.2	122.1
553.4	121.9
553.6	121.1
553.8	120.0
554.0	119.4
554.2	118.6
554.4	117.7
554.6	117.2
554.8	116.7
555.0	115.6
555.2	114.9
555.4	113.9
555.6	112.9
555.8	112.2
556.0	112.1
556.2	111.5
556.4	111.2
556.6	110.0
556.8	109.0
557.0	108.1
557.2	107.8
557.4	107.1
557.6	106.5
557.8	105.5
558.0	104.8
558.2	104.3
558.4	103.9
558.6	103.0
558.8	102.2
559.0	101.5
559.2	100.9
559.4	100.4
559.6	99.72
559.8	98.67
560.0	97.67
560.2	96.89
560.4	96.31
560.6	96.03
560.8	95.86
561.0	95.30
561.2	94.64
561.4	93.64
561.6	92.95
561.8	92.46
562.0	92.21
562.2	91.99
562.4	91.36
562.6	90.38
562.8	89.77
563.0	88.94
563.2	88.11
563.4	87.68
563.6	87.22
563.8	86.73
564.0	86.52
564.2	86.17
564.4	85.44
564.6	84.88
564.8	84.28
565.0	83.31
565.2	82.54
565.4	81.86
565.6	81.11
565.8	80.71
566.0	80.34
566.2	79.87
566.4	79.48
566.6	78.98
566.8	78.53
567.0	78.11
567.2	77.55
567.4	77.01
567.6	76.57
567.8	76.17
568.0	75.79
568.2	75.40
568.4	74.98
568.6	74.44
568.8	73.91
569.0	72.98
569.2	72.41
569.4	71.88
569.6	71.51
569.8	71.06
570.0	70.74
570.2	70.02
570.4	69.71
570.6	69.29
570.8	68.82
571.0	68.61
571.2	68.22
571.4	67.70
571.6	67.15
571.8	66.62
572.0	66.22
572.2	66.10
572.4	65.38
572.6	64.82
572.8	64.25
573.0	63.80
573.2	63.52
573.4	63.12
573.6	62.84
573.8	62.59
574.0	62.30
574.2	62.05
574.4	61.53
574.6	60.86
574.8	60.47
575.0	60.24
575.2	59.88
575.4	59.52
575.6	58.93
575.8	58.35
576.0	57.68
576.2	57.44
576.4	57.04
576.6	56.69
576.8	56.50
577.0	56.18
577.2	55.99
577.4	55.78
577.6	55.42
577.8	54.93
578.0	54.59
578.2	54.03
578.4	53.68
578.6	53.34
578.8	53.16
579.0	52.99
579.2	52.65
579.4	52.07
579.6	51.76
579.8	51.39
580.0	51.06
580.2	50.85
580.4	50.24
580.6	49.62
580.8	49.37
581.0	48.97
581.2	48.78
581.4	48.70
581.6	48.30
581.8	48.23
582.0	47.85
582.2	47.55
582.4	47.31
582.6	47.00
582.8	46.57
583.0	46.26
583.2	45.80
583.4	45.46
583.6	45.27
583.8	44.89
584.0	44.58
584.2	44.18
584.4	44.00
584.6	43.71
584.8	43.70
585.0	43.48
585.2	43.15
585.4	42.79
585.6	42.52
585.8	42.13
586.0	41.68
586.2	41.60
586.4	41.47
586.6	41.24
586.8	40.99
587.0	40.55
587.2	39.89
587.4	39.75
587.6	39.53
587.8	39.38
588.0	39.22
588.2	39.06
588.4	38.78
588.6	38.51
588.8	38.18
589.0	37.82
589.2	37.63
589.4	37.43
589.6	37.26
589.8	36.75
590.0	36.45
590.2	36.15
590.4	36.01
590.6	35.71
590.8	35.53
591.0	35.26
591.2	35.09
591.4	35.08
591.6	34.97
591.8	34.48
592.0	34.17
592.2	33.80
592.4	33.49
592.6	33.50
592.8	33.50
593.0	33.25
593.2	33.15
593.4	32.72
593.6	32.61
593.8	32.51
594.0	32.37
594.2	32.17
594.4	31.91
594.6	31.55
594.8	31.36
595.0	30.96
595.2	30.62
595.4	30.46
595.6	30.40
595.8	30.25
596.0	30.22
596.2	30.23
596.4	30.17
596.6	30.01
596.8	29.65
597.0	29.09
597.2	28.79
597.4	28.65
597.6	28.65
597.8	28.47
598.0	28.25
598.2	27.98
598.4	27.73
598.6	27.57
598.8	27.50
599.0	27.37
599.2	27.42
599.4	27.20
599.6	26.92
599.8	26.69
600.0	26.29
600.2	26.00
600.4	25.89
600.6	25.77
600.8	25.68
601.0	25.60
601.2	25.40
601.4	25.18
601.6	24.96
601.8	24.83
602.0	24.58
602.2	24.43
602.4	24.28
602.6	24.15
602.8	24.09
603.0	23.94
603.2	23.78
603.4	23.48
603.6	23.21
603.8	23.02
604.0	23.00
604.2	22.84
604.4	22.79
604.6	22.65
604.8	22.49
605.0	22.37
605.2	22.23
605.4	22.04
605.6	21.91
605.8	21.87
606.0	21.66
606.2	21.50
606.4	21.33
606.6	21.25
606.8	21.15
607.0	21.06
607.2	20.92
607.4	20.72
607.6	20.58
607.8	20.34
608.0	20.09
608.2	19.83
608.4	19.66
608.6	19.64
608.8	19.65
609.0	19.60
609.2	19.51
609.4	19.12
609.6	18.78
609.8	18.65
610.0	18.59
610.2	18.65
610.4	18.68
610.6	18.52
610.8	18.40
611.0	18.17
611.2	18.02
611.4	17.90
611.6	17.79
611.8	17.68
612.0	17.53
612.2	17.19
612.4	17.05
612.6	16.98
612.8	16.99
613.0	17.03
613.2	17.01
613.4	16.69
613.6	16.51
613.8	16.36
614.0	16.28
614.2	16.35
614.4	16.44
614.6	16.20
614.8	16.02
615.0	15.91
615.2	15.73
615.4	15.70
615.6	15.66
615.8	15.50
616.0	15.38
616.2	15.21
616.4	15.04
616.6	14.98
616.8	15.00
617.0	14.89
617.2	14.72
617.4	14.58
617.6	14.48
617.8	14.45
618.0	14.43
618.2	14.18
618.4	14.00
618.6	13.99
618.8	13.92
619.0	13.97
619.2	13.95
619.4	13.80
619.6	13.62
619.8	13.50
620.0	13.35
620.2	13.30
620.4	13.20
620.6	13.11
620.8	12.99
621.0	12.92
621.2	12.84
621.4	12.75
621.6	12.60
621.8	12.52
622.0	12.49
622.2	12.43
622.4	12.24
622.6	12.20
622.8	12.03
623.0	11.96
623.2	11.92
623.4	11.89
623.6	11.75
623.8	11.77
624.0	11.62
624.2	11.49
624.4	11.29
624.6	11.24
624.8	11.12
625.0	11.17
625.2	11.22
625.4	11.13
625.6	10.97
625.8	10.89
626.0	10.70
626.2	10.71
626.4	10.82
626.6	10.76
626.8	10.65
627.0	10.59
627.2	10.38
627.4	10.18
627.6	10.14
627.8	10.03
628.0	9.901
628.2	9.861
628.4	9.817
628.6	9.781
628.8	9.887
629.0	9.821
629.2	9.713
629.4	9.605
629.6	9.521
629.8	9.470
630.0	9.507
630.2	9.408
630.4	9.277
630.6	9.243
630.8	9.079
631.0	8.996
631.2	8.926
631.4	8.851
631.6	8.715
631.8	8.649
632.0	8.575
632.2	8.667
632.4	8.692
632.6	8.657
632.8	8.626
633.0	8.551
633.2	8.451
633.4	8.404
633.6	8.310
633.8	8.184
634.0	8.176
634.2	8.152
634.4	8.092
634.6	7.955
634.8	7.882
635.0	7.858
635.2	7.894
635.4	7.790
635.6	7.743
635.8	7.611
636.0	7.535
636.2	7.467
636.4	7.428
636.6	7.250
636.8	7.243
637.0	7.293
637.2	7.359
637.4	7.344
637.6	7.212
637.8	7.087
638.0	7.079
638.2	7.059
638.4	7.066
638.6	7.058
638.8	6.905
639.0	6.864
639.2	6.809
639.4	6.787
639.6	6.725
639.8	6.702
640.0	6.737
640.2	6.707
640.4	6.630
640.6	6.552
640.8	6.443
641.0	6.323
641.2	6.369
641.4	6.265
641.6	6.287
641.8	6.287
642.0	6.300
642.2	6.235
642.4	6.174
642.6	5.971
642.8	5.891
643.0	5.867
643.2	5.890
643.4	5.932
643.6	5.918
643.8	5.802
644.0	5.725
644.2	5.691
644.4	5.675
644.6	5.669
644.8	5.634
645.0	5.504
645.2	5.447
645.4	5.410
645.6	5.354
645.8	5.377
646.0	5.405
646.2	5.272
646.4	5.217
646.6	5.120
646.8	5.027
647.0	5.052
647.2	5.020
647.4	4.993
647.6	4.978
647.8	4.992
648.0	5.013
648.2	5.060
648.4	4.897
648.6	4.857
648.8	4.815
649.0	4.805
649.2	4.813
649.4	4.789
649.6	4.700
649.8	4.648
650.0	4.612
650.2	4.612
650.4	4.608
650.6	4.527
650.8	4.495
651.0	4.463
651.2	4.469
651.4	4.481
651.6	4.518
651.8	4.466
652.0	4.430
652.2	4.333
652.4	4.295
652.6	4.165
652.8	4.134
653.0	4.137
653.2	4.168
653.4	4.142
653.6	4.172
653.8	4.075
654.0	4.049
654.2	4.001
654.4	3.946
654.6	3.888
654.8	3.873
655.0	3.817
655.2	3.820
655.4	3.791
655.6	3.761
655.8	3.691
656.0	3.711
656.2	3.728
656.4	3.704
656.6	3.701
656.8	3.660
657.0	3.643
657.2	3.647
657.4	3.672
657.6	3.624
657.8	3.597
658.0	3.506
658.2	3.469
658.4	3.481
658.6	3.485
658.8	3.456
659.0	3.411
659.2	3.356
659.4	3.336
659.6	3.332
659.8	3.259
660.0	3.256
660.2	3.193
660.4	3.238
660.6	3.257
660.8	3.213
661.0	3.130
661.2	3.135
661.4	3.075
661.6	3.095
661.8	3.099
662.0	3.122
662.2	3.122
662.4	3.131
662.6	3.052
662.8	2.994
663.0	2.925
663.2	2.903
663.4	2.900
663.6	2.893
663.8	2.889
664.0	2.895
664.2	2.876
664.4	2.863
664.6	2.865
664.8	2.861
665.0	2.843
665.2	2.763
665.4	2.714
665.6	2.679
665.8	2.605
666.0	2.594
666.2	2.527
666.4	2.502
666.6	2.532
666.8	2.576
667.0	2.579
667.2	2.574
667.4	2.523
667.6	2.484
667.8	2.443
668.0	2.448
668.2	2.465
668.4	2.463
668.6	2.459
668.8	2.407
669.0	2.369
669.2	2.358
669.4	2.358
669.6	2.393
669.8	2.372
670.0	2.357
670.2	2.282
670.4	2.252
670.6	2.242
670.8	2.287
671.0	2.239
671.2	2.259
671.4	2.185
671.6	2.213
671.8	2.178
672.0	2.159
672.2	2.099
672.4	2.111
672.6	2.061
672.8	2.113
673.0	2.109
673.2	2.160
673.4	2.175
673.6	2.192
673.8	2.154
674.0	2.131
674.2	2.067
674.4	2.058
674.6	2.067
674.8	2.056
675.0	2.023
675.2	2.018
675.4	1.957
675.6	1.921
675.8	1.963
676.0	1.942
676.2	1.929
676.4	1.926
676.6	1.885
676.8	1.891
677.0	1.912
677.2	1.879
677.4	1.858
677.6	1.801
677.8	1.755
678.0	1.815
678.2	1.857
678.4	1.877
678.6	1.846
678.8	1.821
679.0	1.767
679.2	1.764
679.4	1.732
679.6	1.727
679.8	1.663
680.0	1.667
680.2	1.659
680.4	1.711
680.6	1.710
680.8	1.696
681.0	1.635
681.2	1.634
681.4	1.596
681.6	1.625
681.8	1.628
682.0	1.617
682.2	1.574
682.4	1.624
682.6	1.639
682.8	1.664
683.0	1.663
683.2	1.643
683.4	1.544
683.6	1.513
683.8	1.530
684.0	1.558
684.2	1.547
684.4	1.562
684.6	1.506
684.8	1.460
685.0	1.424
685.2	1.424
685.4	1.402
685.6	1.435
685.8	1.458
686.0	1.468
686.2	1.402
686.4	1.415
686.6	1.381
686.8	1.416
687.0	1.426
687.2	1.422
687.4	1.392
687.6	1.422
687.8	1.375
688.0	1.392
688.2	1.354
688.4	1.353
688.6	1.375
688.8	1.423
689.0	1.438
689.2	1.473
689.4	1.433
689.6	1.388
689.8	1.322
690.0	1.251
690.2	1.236
690.4	1.277
690.6	1.326
690.8	1.353
691.0	1.351
691.2	1.313
691.4	1.293
691.6	1.284
691.8	1.325
692.0	1.329
692.2	1.306
692.4	1.309
692.6	1.278
692.8	1.235
693.0	1.239
693.2	1.246
693.4	1.242
693.6	1.261
693.8	1.252
694.0	1.251
694.2	1.263
694.4	1.263
694.6	1.279
694.8	1.280
695.0	1.256
695.2	1.250
695.4	1.230
695.6	1.194
695.8	1.177
696.0	1.160
696.2	1.190
696.4	1.173
696.6	1.174
696.8	1.177
697.0	1.172
697.2	1.137
697.4	1.209
697.6	1.210
697.8	1.194
698.0	1.212
698.2	1.186
698.4	1.141
698.6	1.154
698.8	1.166
699.0	1.095
699.2	1.109
699.4	1.097
699.6	1.127
699.8	1.188
700.0	1.283

