Sample:	'20211010A(EM)
File name:	R-CDs 10 1000.FDS
Run date:	'11:36:50, 06/11/2023
Operator:	Administrator
Comment:	'

Instrument
Model:	F-4700 FL Spectrophotometer
Serial number:	2019-001
ROM Version:	5J24010 00

Instrument parameters
Measurement type:	Wavelength scan
Scan mode:	Emission
Data mode:	Fluorescence
EX WL:	520.0 nm
EM  Start WL:	540.0 nm
EM  End WL:	810.0 nm
Scan speed:	1200 nm/min
Delay:	0.0 s
EX Slit:	10.0 nm
EM Slit:	10.0 nm
PMT Voltage:	515 V
Response:	0.002 s
Corrected spectra:	Off
Shutter control:	On

Processing performed
Savitsky-Golay smoothed
Smoothing order:	3
Number of points:	7
Number of times:	1

Peak integration
Integration method:	Rectangular
Sensitivity:	1
Threshold:	1.000

Peaks
No.	Start(nm)	Apex(nm)	End(nm)	Height(Data)	Valley(nm)	Valley(Data)
1	540.0	616.2	617.8	2125	617.8	2115
2	617.8	619.8	623.6	2133	623.6	2112
3	623.6	624.4	781.6	2126	781.6	31.54
4	781.6	782.0	797.6	33.07	797.6	22.21
5	797.6	798.6	801.0	23.89	801.0	20.41
6	801.0	802.0	807.2	22.20	807.2	18.44
7	807.2	808.0	810.0	19.96	810.0	17.25

Data points
nm	Data
540.0	134.8
540.2	135.9
540.4	137.1
540.6	138.4
540.8	140.0
541.0	141.6
541.2	143.4
541.4	144.6
541.6	146.9
541.8	147.9
542.0	148.5
542.2	149.4
542.4	149.9
542.6	149.0
542.8	150.6
543.0	153.0
543.2	155.7
543.4	157.3
543.6	157.9
543.8	158.9
544.0	159.6
544.2	159.8
544.4	161.6
544.6	162.0
544.8	163.9
545.0	166.4
545.2	168.4
545.4	169.3
545.6	169.7
545.8	171.1
546.0	174.0
546.2	176.7
546.4	179.1
546.6	181.9
546.8	181.1
547.0	181.7
547.2	181.4
547.4	183.4
547.6	185.8
547.8	189.7
548.0	191.3
548.2	191.1
548.4	191.7
548.6	191.9
548.8	192.9
549.0	195.0
549.2	199.0
549.4	201.2
549.6	205.2
549.8	206.5
550.0	208.1
550.2	209.5
550.4	211.5
550.6	214.2
550.8	216.4
551.0	219.1
551.2	221.9
551.4	224.6
551.6	225.5
551.8	227.2
552.0	229.3
552.2	231.8
552.4	234.9
552.6	237.4
552.8	238.3
553.0	239.1
553.2	241.7
553.4	245.4
553.6	250.2
553.8	253.4
554.0	255.4
554.2	256.2
554.4	258.4
554.6	260.5
554.8	263.3
555.0	266.4
555.2	269.3
555.4	271.5
555.6	275.8
555.8	278.2
556.0	281.2
556.2	285.5
556.4	288.5
556.6	291.0
556.8	293.1
557.0	293.9
557.2	295.1
557.4	298.2
557.6	301.5
557.8	306.4
558.0	310.2
558.2	313.5
558.4	317.9
558.6	322.2
558.8	326.4
559.0	330.9
559.2	334.6
559.4	338.5
559.6	341.5
559.8	344.5
560.0	348.1
560.2	350.8
560.4	355.4
560.6	359.7
560.8	363.8
561.0	368.2
561.2	374.3
561.4	379.3
561.6	384.0
561.8	387.6
562.0	390.5
562.2	393.9
562.4	397.8
562.6	404.1
562.8	410.2
563.0	416.0
563.2	419.7
563.4	424.8
563.6	427.2
563.8	433.6
564.0	437.1
564.2	441.8
564.4	446.8
564.6	453.8
564.8	460.2
565.0	467.0
565.2	470.1
565.4	474.5
565.6	476.4
565.8	483.7
566.0	489.7
566.2	495.6
566.4	503.3
566.6	512.2
566.8	517.8
567.0	524.4
567.2	528.0
567.4	530.7
567.6	535.2
567.8	542.2
568.0	548.0
568.2	553.0
568.4	561.4
568.6	568.5
568.8	576.6
569.0	583.4
569.2	586.2
569.4	588.9
569.6	597.5
569.8	607.8
570.0	617.7
570.2	626.5
570.4	633.4
570.6	637.9
570.8	645.7
571.0	655.6
571.2	661.1
571.4	670.8
571.6	680.9
571.8	689.1
572.0	694.7
572.2	699.2
572.4	702.8
572.6	710.3
572.8	720.5
573.0	731.5
573.2	738.2
573.4	747.7
573.6	757.8
573.8	764.4
574.0	772.8
574.2	779.2
574.4	782.1
574.6	795.2
574.8	805.7
575.0	814.2
575.2	823.4
575.4	829.3
575.6	835.7
575.8	847.6
576.0	859.6
576.2	869.0
576.4	876.6
576.6	884.5
576.8	892.4
577.0	903.5
577.2	916.2
577.4	920.2
577.6	925.6
577.8	934.7
578.0	940.0
578.2	952.9
578.4	965.3
578.6	973.8
578.8	983.7
579.0	992.6
579.2	995.6
579.4	1004
579.6	1013
579.8	1023
580.0	1032
580.2	1042
580.4	1052
580.6	1063
580.8	1073
581.0	1082
581.2	1090
581.4	1099
581.6	1109
581.8	1115
582.0	1124
582.2	1135
582.4	1147
582.6	1157
582.8	1169
583.0	1179
583.2	1189
583.4	1200
583.6	1208
583.8	1215
584.0	1223
584.2	1232
584.4	1241
584.6	1251
584.8	1264
585.0	1274
585.2	1285
585.4	1295
585.6	1301
585.8	1309
586.0	1315
586.2	1320
586.4	1328
586.6	1334
586.8	1341
587.0	1354
587.2	1367
587.4	1381
587.6	1391
587.8	1398
588.0	1401
588.2	1412
588.4	1420
588.6	1427
588.8	1432
589.0	1441
589.2	1448
589.4	1457
589.6	1468
589.8	1478
590.0	1487
590.2	1498
590.4	1511
590.6	1515
590.8	1522
591.0	1528
591.2	1537
591.4	1545
591.6	1553
591.8	1561
592.0	1570
592.2	1577
592.4	1588
592.6	1596
592.8	1601
593.0	1609
593.2	1618
593.4	1623
593.6	1633
593.8	1643
594.0	1648
594.2	1658
594.4	1665
594.6	1670
594.8	1679
595.0	1685
595.2	1690
595.4	1699
595.6	1703
595.8	1709
596.0	1719
596.2	1727
596.4	1732
596.6	1741
596.8	1750
597.0	1759
597.2	1767
597.4	1773
597.6	1776
597.8	1781
598.0	1785
598.2	1790
598.4	1796
598.6	1797
598.8	1801
599.0	1808
599.2	1815
599.4	1825
599.6	1833
599.8	1834
600.0	1839
600.2	1847
600.4	1856
600.6	1859
600.8	1862
601.0	1865
601.2	1871
601.4	1877
601.6	1883
601.8	1889
602.0	1895
602.2	1904
602.4	1911
602.6	1915
602.8	1920
603.0	1923
603.2	1924
603.4	1930
603.6	1931
603.8	1938
604.0	1943
604.2	1949
604.4	1960
604.6	1966
604.8	1966
605.0	1971
605.2	1973
605.4	1978
605.6	1990
605.8	1991
606.0	1992
606.2	1988
606.4	1985
606.6	1989
606.8	2004
607.0	2016
607.2	2024
607.4	2022
607.6	2019
607.8	2019
608.0	2027
608.2	2031
608.4	2036
608.6	2041
608.8	2045
609.0	2046
609.2	2049
609.4	2046
609.6	2047
609.8	2053
610.0	2056
610.2	2059
610.4	2062
610.6	2067
610.8	2069
611.0	2074
611.2	2073
611.4	2076
611.6	2079
611.8	2089
612.0	2091
612.2	2091
612.4	2092
612.6	2091
612.8	2090
613.0	2094
613.2	2094
613.4	2096
613.6	2100
613.8	2104
614.0	2108
614.2	2110
614.4	2107
614.6	2109
614.8	2111
615.0	2118
615.2	2120
615.4	2120
615.6	2115
615.8	2120
616.0	2123
616.2	2125
616.4	2123
616.6	2120
616.8	2119
617.0	2119
617.2	2120
617.4	2119
617.6	2116
617.8	2115
618.0	2123
618.2	2121
618.4	2124
618.6	2130
618.8	2128
619.0	2128
619.2	2131
619.4	2130
619.6	2129
619.8	2133
620.0	2131
620.2	2128
620.4	2126
620.6	2123
620.8	2121
621.0	2124
621.2	2125
621.4	2128
621.6	2126
621.8	2123
622.0	2122
622.2	2120
622.4	2118
622.6	2116
622.8	2114
623.0	2113
623.2	2117
623.4	2114
623.6	2112
623.8	2112
624.0	2121
624.2	2125
624.4	2126
624.6	2124
624.8	2119
625.0	2111
625.2	2110
625.4	2106
625.6	2103
625.8	2102
626.0	2099
626.2	2094
626.4	2093
626.6	2090
626.8	2090
627.0	2088
627.2	2086
627.4	2084
627.6	2085
627.8	2081
628.0	2074
628.2	2070
628.4	2066
628.6	2067
628.8	2063
629.0	2062
629.2	2057
629.4	2056
629.6	2053
629.8	2051
630.0	2046
630.2	2044
630.4	2045
630.6	2045
630.8	2037
631.0	2030
631.2	2023
631.4	2018
631.6	2019
631.8	2019
632.0	2016
632.2	2017
632.4	2013
632.6	2009
632.8	1996
633.0	1986
633.2	1979
633.4	1976
633.6	1974
633.8	1975
634.0	1973
634.2	1972
634.4	1967
634.6	1962
634.8	1961
635.0	1957
635.2	1954
635.4	1950
635.6	1942
635.8	1940
636.0	1938
636.2	1932
636.4	1927
636.6	1923
636.8	1917
637.0	1919
637.2	1917
637.4	1911
637.6	1902
637.8	1895
638.0	1887
638.2	1887
638.4	1887
638.6	1885
638.8	1879
639.0	1873
639.2	1865
639.4	1858
639.6	1851
639.8	1847
640.0	1844
640.2	1842
640.4	1836
640.6	1828
640.8	1824
641.0	1816
641.2	1814
641.4	1811
641.6	1808
641.8	1803
642.0	1799
642.2	1788
642.4	1781
642.6	1774
642.8	1771
643.0	1770
643.2	1769
643.4	1763
643.6	1761
643.8	1755
644.0	1745
644.2	1737
644.4	1732
644.6	1726
644.8	1721
645.0	1721
645.2	1716
645.4	1708
645.6	1704
645.8	1700
646.0	1688
646.2	1683
646.4	1676
646.6	1671
646.8	1668
647.0	1666
647.2	1657
647.4	1650
647.6	1644
647.8	1640
648.0	1633
648.2	1625
648.4	1619
648.6	1615
648.8	1610
649.0	1605
649.2	1598
649.4	1590
649.6	1583
649.8	1581
650.0	1580
650.2	1580
650.4	1576
650.6	1571
650.8	1561
651.0	1554
651.2	1546
651.4	1540
651.6	1535
651.8	1529
652.0	1520
652.2	1516
652.4	1510
652.6	1502
652.8	1497
653.0	1489
653.2	1483
653.4	1483
653.6	1477
653.8	1470
654.0	1463
654.2	1457
654.4	1451
654.6	1447
654.8	1441
655.0	1432
655.2	1423
655.4	1418
655.6	1414
655.8	1410
656.0	1408
656.2	1400
656.4	1391
656.6	1386
656.8	1381
657.0	1373
657.2	1367
657.4	1360
657.6	1356
657.8	1354
658.0	1352
658.2	1345
658.4	1336
658.6	1329
658.8	1322
659.0	1315
659.2	1311
659.4	1304
659.6	1300
659.8	1295
660.0	1287
660.2	1281
660.4	1277
660.6	1272
660.8	1265
661.0	1259
661.2	1252
661.4	1251
661.6	1245
661.8	1241
662.0	1232
662.2	1227
662.4	1224
662.6	1219
662.8	1211
663.0	1204
663.2	1198
663.4	1195
663.6	1193
663.8	1187
664.0	1181
664.2	1174
664.4	1170
664.6	1162
664.8	1158
665.0	1154
665.2	1149
665.4	1144
665.6	1136
665.8	1127
666.0	1120
666.2	1117
666.4	1114
666.6	1111
666.8	1104
667.0	1096
667.2	1091
667.4	1084
667.6	1081
667.8	1079
668.0	1076
668.2	1070
668.4	1066
668.6	1059
668.8	1053
669.0	1050
669.2	1042
669.4	1037
669.6	1030
669.8	1026
670.0	1024
670.2	1020
670.4	1012
670.6	1008
670.8	999.8
671.0	995.1
671.2	990.2
671.4	983.3
671.6	979.4
671.8	977.4
672.0	971.6
672.2	968.7
672.4	962.6
672.6	957.4
672.8	954.0
673.0	949.5
673.2	943.1
673.4	936.3
673.6	930.0
673.8	924.2
674.0	921.3
674.2	918.8
674.4	918.2
674.6	913.4
674.8	909.5
675.0	902.8
675.2	898.3
675.4	889.3
675.6	882.9
675.8	878.1
676.0	876.3
676.2	872.6
676.4	870.2
676.6	864.0
676.8	858.0
677.0	853.2
677.2	846.8
677.4	841.0
677.6	836.5
677.8	833.0
678.0	831.2
678.2	827.7
678.4	823.2
678.6	821.2
678.8	815.7
679.0	809.7
679.2	806.4
679.4	801.4
679.6	796.4
679.8	793.6
680.0	787.3
680.2	782.1
680.4	780.0
680.6	774.5
680.8	769.4
681.0	763.6
681.2	759.9
681.4	759.1
681.6	757.9
681.8	755.2
682.0	751.0
682.2	742.6
682.4	738.6
682.6	733.4
682.8	728.0
683.0	725.1
683.2	723.5
683.4	718.0
683.6	714.9
683.8	708.4
684.0	704.2
684.2	700.1
684.4	697.3
684.6	693.4
684.8	690.7
685.0	686.4
685.2	683.7
685.4	681.6
685.6	676.9
685.8	674.5
686.0	673.8
686.2	670.0
686.4	665.4
686.6	662.4
686.8	655.6
687.0	649.6
687.2	646.2
687.4	641.9
687.6	636.7
687.8	635.0
688.0	631.8
688.2	629.6
688.4	627.7
688.6	626.3
688.8	622.2
689.0	617.8
689.2	613.6
689.4	608.9
689.6	606.4
689.8	602.5
690.0	598.9
690.2	595.3
690.4	593.1
690.6	590.4
690.8	588.6
691.0	584.8
691.2	582.4
691.4	581.2
691.6	578.7
691.8	574.8
692.0	569.5
692.2	564.4
692.4	560.6
692.6	559.3
692.8	558.1
693.0	558.2
693.2	554.9
693.4	550.2
693.6	546.0
693.8	541.7
694.0	540.5
694.2	540.6
694.4	539.4
694.6	537.6
694.8	534.9
695.0	530.8
695.2	528.1
695.4	524.9
695.6	523.0
695.8	521.0
696.0	517.7
696.2	514.3
696.4	511.0
696.6	508.4
696.8	505.5
697.0	502.5
697.2	499.1
697.4	495.9
697.6	493.3
697.8	490.1
698.0	489.7
698.2	490.1
698.4	490.1
698.6	487.0
698.8	483.4
699.0	477.6
699.2	475.8
699.4	475.3
699.6	473.7
699.8	471.3
700.0	469.6
700.2	466.4
700.4	465.4
700.6	463.8
700.8	459.3
701.0	455.6
701.2	452.4
701.4	448.6
701.6	446.6
701.8	447.2
702.0	446.4
702.2	445.6
702.4	443.8
702.6	440.9
702.8	439.4
703.0	437.6
703.2	434.0
703.4	430.1
703.6	427.0
703.8	425.3
704.0	425.7
704.2	422.3
704.4	418.4
704.6	415.3
704.8	413.5
705.0	412.2
705.2	411.2
705.4	408.8
705.6	406.7
705.8	405.7
706.0	403.8
706.2	402.3
706.4	400.6
706.6	396.4
706.8	394.6
707.0	392.1
707.2	390.3
707.4	388.2
707.6	387.3
707.8	382.7
708.0	381.7
708.2	379.6
708.4	380.2
708.6	377.3
708.8	376.6
709.0	374.8
709.2	371.3
709.4	368.6
709.6	367.5
709.8	363.5
710.0	362.7
710.2	361.8
710.4	358.4
710.6	357.4
710.8	355.6
711.0	353.2
711.2	350.4
711.4	346.5
711.6	344.0
711.8	343.6
712.0	341.3
712.2	339.4
712.4	336.8
712.6	334.1
712.8	333.6
713.0	333.1
713.2	330.9
713.4	327.7
713.6	324.9
713.8	322.3
714.0	321.2
714.2	318.3
714.4	316.6
714.6	315.0
714.8	314.8
715.0	314.0
715.2	311.9
715.4	310.1
715.6	308.0
715.8	307.2
716.0	304.4
716.2	300.5
716.4	297.4
716.6	297.0
716.8	295.2
717.0	296.2
717.2	294.0
717.4	291.2
717.6	289.5
717.8	286.7
718.0	283.3
718.2	283.7
718.4	280.1
718.6	277.4
718.8	276.5
719.0	275.5
719.2	272.4
719.4	272.1
719.6	270.8
719.8	269.2
720.0	268.4
720.2	266.2
720.4	261.8
720.6	260.4
720.8	260.1
721.0	259.7
721.2	258.9
721.4	256.9
721.6	253.5
721.8	251.9
722.0	249.1
722.2	248.1
722.4	245.3
722.6	243.9
722.8	241.1
723.0	240.9
723.2	239.7
723.4	238.0
723.6	236.3
723.8	235.4
724.0	234.3
724.2	233.6
724.4	231.1
724.6	228.5
724.8	227.2
725.0	225.6
725.2	223.9
725.4	222.2
725.6	219.4
725.8	217.6
726.0	217.1
726.2	215.8
726.4	213.8
726.6	212.8
726.8	211.7
727.0	210.9
727.2	210.8
727.4	208.3
727.6	204.6
727.8	202.2
728.0	201.3
728.2	200.5
728.4	199.0
728.6	197.3
728.8	195.4
729.0	194.7
729.2	193.8
729.4	192.5
729.6	190.7
729.8	189.1
730.0	187.3
730.2	185.5
730.4	184.7
730.6	183.7
730.8	184.2
731.0	183.2
731.2	181.8
731.4	179.5
731.6	178.1
731.8	177.1
732.0	176.8
732.2	174.6
732.4	174.8
732.6	173.0
732.8	171.7
733.0	170.0
733.2	167.7
733.4	165.5
733.6	165.6
733.8	163.3
734.0	163.6
734.2	161.3
734.4	160.0
734.6	160.1
734.8	160.1
735.0	158.6
735.2	159.0
735.4	157.3
735.6	156.6
735.8	156.1
736.0	155.3
736.2	153.9
736.4	153.3
736.6	150.4
736.8	148.9
737.0	147.1
737.2	146.0
737.4	145.2
737.6	145.7
737.8	144.2
738.0	144.1
738.2	142.3
738.4	141.0
738.6	139.8
738.8	139.4
739.0	138.4
739.2	137.8
739.4	136.7
739.6	134.9
739.8	133.6
740.0	133.0
740.2	132.4
740.4	131.2
740.6	130.6
740.8	129.9
741.0	128.5
741.2	127.9
741.4	126.9
741.6	125.0
741.8	124.5
742.0	123.7
742.2	122.3
742.4	121.1
742.6	120.3
742.8	119.8
743.0	119.6
743.2	118.7
743.4	119.4
743.6	118.1
743.8	117.5
744.0	116.5
744.2	113.9
744.4	111.9
744.6	111.2
744.8	109.7
745.0	110.5
745.2	111.4
745.4	111.8
745.6	111.8
745.8	110.1
746.0	108.7
746.2	108.1
746.4	107.0
746.6	106.3
746.8	105.2
747.0	103.2
747.2	102.3
747.4	101.5
747.6	101.4
747.8	101.9
748.0	102.4
748.2	102.5
748.4	101.9
748.6	99.94
748.8	98.33
749.0	98.18
749.2	97.51
749.4	97.17
749.6	96.97
749.8	96.27
750.0	95.04
750.2	94.58
750.4	93.27
750.6	91.77
750.8	91.78
751.0	91.62
751.2	90.26
751.4	89.67
751.6	88.75
751.8	87.49
752.0	87.42
752.2	86.83
752.4	86.22
752.6	85.79
752.8	84.51
753.0	84.15
753.2	83.90
753.4	84.01
753.6	84.41
753.8	83.47
754.0	82.50
754.2	82.98
754.4	81.98
754.6	81.65
754.8	80.97
755.0	79.41
755.2	78.36
755.4	78.48
755.6	78.07
755.8	78.20
756.0	77.20
756.2	76.24
756.4	75.60
756.6	75.01
756.8	74.58
757.0	74.85
757.2	74.17
757.4	73.70
757.6	73.32
757.8	72.56
758.0	71.67
758.2	70.77
758.4	69.76
758.6	69.16
758.8	68.84
759.0	69.16
759.2	69.33
759.4	68.12
759.6	67.71
759.8	66.81
760.0	66.01
760.2	66.00
760.4	66.11
760.6	65.99
760.8	65.97
761.0	64.70
761.2	62.87
761.4	62.54
761.6	62.48
761.8	63.12
762.0	63.57
762.2	62.99
762.4	61.70
762.6	60.87
762.8	59.70
763.0	60.08
763.2	59.69
763.4	58.97
763.6	58.28
763.8	57.74
764.0	57.58
764.2	58.11
764.4	57.23
764.6	56.70
764.8	55.54
765.0	54.86
765.2	54.76
765.4	54.34
765.6	54.01
765.8	54.41
766.0	53.91
766.2	53.67
766.4	53.14
766.6	52.39
766.8	52.33
767.0	52.99
767.2	52.84
767.4	52.52
767.6	51.59
767.8	50.74
768.0	50.65
768.2	49.85
768.4	49.70
768.6	49.56
768.8	48.91
769.0	49.12
769.2	49.24
769.4	47.88
769.6	46.96
769.8	46.66
770.0	46.01
770.2	46.68
770.4	47.27
770.6	46.39
770.8	45.27
771.0	44.86
771.2	44.51
771.4	44.94
771.6	45.16
771.8	44.54
772.0	43.79
772.2	42.94
772.4	42.59
772.6	43.02
772.8	43.26
773.0	43.04
773.2	42.78
773.4	41.76
773.6	41.35
773.8	41.31
774.0	40.99
774.2	40.27
774.4	39.87
774.6	39.35
774.8	39.33
775.0	39.57
775.2	39.88
775.4	39.91
775.6	39.88
775.8	39.55
776.0	38.70
776.2	38.42
776.4	37.52
776.6	36.45
776.8	36.73
777.0	36.96
777.2	37.28
777.4	37.65
777.6	37.21
777.8	36.66
778.0	36.67
778.2	36.26
778.4	35.61
778.6	35.97
778.8	35.72
779.0	35.84
779.2	35.46
779.4	34.53
779.6	33.50
779.8	34.13
780.0	33.91
780.2	34.52
780.4	33.92
780.6	33.41
780.8	33.06
781.0	32.45
781.2	31.83
781.4	31.86
781.6	31.54
781.8	32.19
782.0	33.07
782.2	32.81
782.4	32.36
782.6	32.17
782.8	31.76
783.0	31.57
783.2	30.86
783.4	30.33
783.6	30.01
783.8	30.05
784.0	30.33
784.2	30.40
784.4	29.90
784.6	30.36
784.8	30.16
785.0	30.07
785.2	29.97
785.4	29.45
785.6	29.43
785.8	29.16
786.0	28.97
786.2	28.65
786.4	28.49
786.6	27.98
786.8	28.28
787.0	27.96
787.2	28.00
787.4	28.24
787.6	28.77
787.8	28.58
788.0	28.57
788.2	27.85
788.4	27.14
788.6	27.12
788.8	27.38
789.0	27.48
789.2	27.96
789.4	27.80
789.6	27.62
789.8	27.26
790.0	26.91
790.2	26.55
790.4	26.42
790.6	26.30
790.8	26.16
791.0	26.31
791.2	26.47
791.4	26.63
791.6	26.44
791.8	25.77
792.0	25.14
792.2	25.11
792.4	25.09
792.6	25.33
792.8	25.71
793.0	25.26
793.2	25.13
793.4	24.91
793.6	24.42
793.8	24.19
794.0	24.24
794.2	24.09
794.4	24.44
794.6	24.48
794.8	24.42
795.0	23.88
795.2	23.72
795.4	23.85
795.6	24.05
795.8	24.23
796.0	24.43
796.2	23.83
796.4	23.80
796.6	24.23
796.8	23.71
797.0	23.06
797.2	22.78
797.4	22.40
797.6	22.21
797.8	22.97
798.0	22.89
798.2	22.93
798.4	23.57
798.6	23.89
798.8	23.40
799.0	23.09
799.2	22.60
799.4	22.02
799.6	22.13
799.8	22.08
800.0	21.83
800.2	21.64
800.4	21.59
800.6	21.15
800.8	21.20
801.0	20.41
801.2	20.59
801.4	21.08
801.6	21.53
801.8	22.02
802.0	22.20
802.2	21.71
802.4	21.46
802.6	20.64
802.8	20.77
803.0	20.74
803.2	20.87
803.4	21.27
803.6	20.99
803.8	20.20
804.0	20.04
804.2	19.66
804.4	19.50
804.6	19.62
804.8	20.00
805.0	20.13
805.2	19.94
805.4	19.96
805.6	19.87
805.8	19.56
806.0	19.15
806.2	18.66
806.4	18.53
806.6	18.47
806.8	18.87
807.0	18.95
807.2	18.44
807.4	18.49
807.6	19.26
807.8	19.61
808.0	19.96
808.2	19.64
808.4	18.80
808.6	18.47
808.8	18.35
809.0	18.12
809.2	18.17
809.4	17.88
809.6	17.65
809.8	17.44
810.0	17.25

