Sample:	'20211010A(EM)
File name:	G-c-NI-dots 300S2-.FDS
Run date:	'16:55:00, 03/22/2023
Operator:	Administrator
Comment:	'

Instrument
Model:	F-4700 FL Spectrophotometer
Serial number:	2019-001
ROM Version:	5J24010 00

Instrument parameters
Measurement type:	Wavelength scan
Scan mode:	Emission
Data mode:	Fluorescence
EX WL:	400.0 nm
EM  Start WL:	420.0 nm
EM  End WL:	850.0 nm
Scan speed:	1200 nm/min
Delay:	0.0 s
EX Slit:	10.0 nm
EM Slit:	10.0 nm
PMT Voltage:	500 V
Response:	0.002 s
Corrected spectra:	Off
Shutter control:	On

Processing performed
Savitsky-Golay smoothed
Smoothing order:	3
Number of points:	7
Number of times:	1

Peak integration
Integration method:	Rectangular
Sensitivity:	1
Threshold:	1.000

Peaks
No.	Start(nm)	Apex(nm)	End(nm)	Height(Data)	Valley(nm)	Valley(Data)
1	420.0	545.2	777.8	8568	777.8	9.941
2	777.8	800.6	850.0	53.65	850.0	2.301

Data points
nm	Data
420.0	5.480
420.2	5.677
420.4	5.686
420.6	5.583
420.8	5.434
421.0	5.476
421.2	5.392
421.4	5.347
421.6	5.341
421.8	5.427
422.0	5.426
422.2	5.470
422.4	5.392
422.6	5.447
422.8	5.410
423.0	5.692
423.2	5.533
423.4	5.419
423.6	5.467
423.8	5.304
424.0	5.263
424.2	5.481
424.4	5.443
424.6	5.545
424.8	5.733
425.0	5.627
425.2	5.559
425.4	5.476
425.6	5.395
425.8	5.282
426.0	5.475
426.2	5.510
426.4	5.629
426.6	5.787
426.8	5.938
427.0	5.871
427.2	5.902
427.4	5.712
427.6	5.646
427.8	5.741
428.0	5.847
428.2	5.742
428.4	5.859
428.6	5.830
428.8	5.911
429.0	5.854
429.2	5.715
429.4	5.737
429.6	5.863
429.8	5.874
430.0	6.064
430.2	5.990
430.4	5.864
430.6	6.013
430.8	5.993
431.0	6.173
431.2	6.259
431.4	6.237
431.6	6.065
431.8	6.159
432.0	6.235
432.2	6.413
432.4	6.267
432.6	6.080
432.8	6.040
433.0	6.167
433.2	6.334
433.4	6.320
433.6	6.224
433.8	6.353
434.0	6.419
434.2	6.516
434.4	6.493
434.6	6.453
434.8	6.527
435.0	6.765
435.2	6.742
435.4	6.881
435.6	7.030
435.8	7.235
436.0	7.295
436.2	7.360
436.4	7.305
436.6	7.175
436.8	7.261
437.0	7.196
437.2	7.097
437.4	7.025
437.6	7.144
437.8	7.236
438.0	7.535
438.2	7.739
438.4	7.889
438.6	7.769
438.8	7.919
439.0	8.014
439.2	8.246
439.4	8.439
439.6	8.687
439.8	8.647
440.0	8.736
440.2	8.902
440.4	8.946
440.6	9.038
440.8	9.184
441.0	9.370
441.2	9.434
441.4	9.389
441.6	9.455
441.8	9.553
442.0	9.651
442.2	9.891
442.4	10.01
442.6	9.956
442.8	10.15
443.0	10.28
443.2	10.46
443.4	10.70
443.6	11.03
443.8	11.22
444.0	11.29
444.2	11.40
444.4	11.34
444.6	11.44
444.8	11.49
445.0	11.63
445.2	11.86
445.4	12.02
445.6	11.96
445.8	12.12
446.0	12.39
446.2	12.90
446.4	13.34
446.6	13.39
446.8	13.43
447.0	13.46
447.2	13.64
447.4	14.07
447.6	14.41
447.8	14.37
448.0	14.61
448.2	14.79
448.4	15.22
448.6	15.40
448.8	15.44
449.0	15.37
449.2	15.65
449.4	16.15
449.6	16.39
449.8	16.16
450.0	16.29
450.2	16.72
450.4	17.44
450.6	18.05
450.8	18.13
451.0	18.32
451.2	18.94
451.4	19.32
451.6	19.27
451.8	18.74
452.0	18.54
452.2	18.81
452.4	19.54
452.6	20.27
452.8	20.60
453.0	20.62
453.2	20.89
453.4	20.65
453.6	20.65
453.8	20.83
454.0	21.45
454.2	22.34
454.4	22.67
454.6	22.76
454.8	23.14
455.0	23.39
455.2	23.56
455.4	23.83
455.6	23.83
455.8	24.54
456.0	25.33
456.2	26.01
456.4	25.86
456.6	25.86
456.8	25.75
457.0	25.80
457.2	26.23
457.4	26.81
457.6	27.34
457.8	27.92
458.0	27.98
458.2	27.87
458.4	28.10
458.6	28.50
458.8	29.19
459.0	29.83
459.2	30.04
459.4	30.35
459.6	30.66
459.8	30.94
460.0	31.43
460.2	32.23
460.4	32.88
460.6	33.69
460.8	34.31
461.0	34.40
461.2	34.61
461.4	35.06
461.6	35.55
461.8	36.05
462.0	36.72
462.2	36.83
462.4	37.15
462.6	37.70
462.8	38.18
463.0	39.04
463.2	40.00
463.4	40.49
463.6	41.14
463.8	41.54
464.0	41.91
464.2	42.71
464.4	43.59
464.6	44.36
464.8	45.27
465.0	45.23
465.2	45.72
465.4	46.92
465.6	48.04
465.8	49.57
466.0	51.04
466.2	51.75
466.4	52.79
466.6	53.65
466.8	53.83
467.0	54.48
467.2	54.85
467.4	56.07
467.6	57.76
467.8	58.54
468.0	59.75
468.2	61.49
468.4	62.32
468.6	64.26
468.8	65.34
469.0	65.67
469.2	67.30
469.4	69.13
469.6	70.54
469.8	72.07
470.0	73.28
470.2	74.81
470.4	76.86
470.6	78.24
470.8	79.89
471.0	80.97
471.2	82.92
471.4	85.11
471.6	87.41
471.8	88.73
472.0	90.22
472.2	91.05
472.4	92.73
472.6	95.41
472.8	98.68
473.0	101.8
473.2	104.9
473.4	107.0
473.6	109.1
473.8	111.1
474.0	112.8
474.2	115.4
474.4	117.8
474.6	120.7
474.8	123.8
475.0	126.9
475.2	129.4
475.4	132.7
475.6	135.3
475.8	137.9
476.0	140.8
476.2	143.6
476.4	146.4
476.6	149.3
476.8	153.1
477.0	156.7
477.2	161.1
477.4	164.9
477.6	169.5
477.8	173.7
478.0	177.8
478.2	182.9
478.4	187.4
478.6	191.0
478.8	195.1
479.0	199.1
479.2	203.0
479.4	209.0
479.6	214.8
479.8	219.8
480.0	224.1
480.2	227.5
480.4	232.9
480.6	238.2
480.8	245.1
481.0	250.7
481.2	255.3
481.4	260.1
481.6	267.4
481.8	274.5
482.0	281.5
482.2	287.8
482.4	292.9
482.6	299.2
482.8	306.3
483.0	314.1
483.2	321.5
483.4	329.4
483.6	336.3
483.8	344.0
484.0	352.1
484.2	359.3
484.4	367.8
484.6	376.3
484.8	384.2
485.0	394.4
485.2	403.4
485.4	412.9
485.6	423.5
485.8	433.3
486.0	442.5
486.2	454.5
486.4	463.0
486.6	472.9
486.8	484.2
487.0	495.0
487.2	506.1
487.4	516.5
487.6	524.0
487.8	533.2
488.0	546.2
488.2	560.1
488.4	573.2
488.6	584.3
488.8	594.5
489.0	606.5
489.2	620.9
489.4	635.7
489.6	651.8
489.8	667.1
490.0	680.8
490.2	695.2
490.4	707.9
490.6	722.0
490.8	738.4
491.0	754.6
491.2	770.2
491.4	788.0
491.6	803.7
491.8	823.6
492.0	840.4
492.2	856.7
492.4	873.7
492.6	891.1
492.8	906.8
493.0	925.8
493.2	939.9
493.4	956.1
493.6	976.5
493.8	997.9
494.0	1020
494.2	1044
494.4	1061
494.6	1079
494.8	1100
495.0	1121
495.2	1145
495.4	1169
495.6	1191
495.8	1213
496.0	1236
496.2	1260
496.4	1286
496.6	1309
496.8	1332
497.0	1356
497.2	1377
497.4	1401
497.6	1426
497.8	1450
498.0	1475
498.2	1500
498.4	1527
498.6	1554
498.8	1581
499.0	1608
499.2	1634
499.4	1663
499.6	1693
499.8	1726
500.0	1757
500.2	1786
500.4	1815
500.6	1843
500.8	1872
501.0	1904
501.2	1935
501.4	1966
501.6	1998
501.8	2032
502.0	2066
502.2	2099
502.4	2129
502.6	2155
502.8	2184
503.0	2220
503.2	2255
503.4	2295
503.6	2329
503.8	2359
504.0	2390
504.2	2428
504.4	2468
504.6	2511
504.8	2550
505.0	2585
505.2	2614
505.4	2647
505.6	2683
505.8	2727
506.0	2771
506.2	2810
506.4	2846
506.6	2879
506.8	2911
507.0	2951
507.2	2983
507.4	3018
507.6	3057
507.8	3098
508.0	3139
508.2	3183
508.4	3225
508.6	3273
508.8	3319
509.0	3364
509.2	3400
509.4	3433
509.6	3473
509.8	3513
510.0	3559
510.2	3608
510.4	3650
510.6	3700
510.8	3747
511.0	3786
511.2	3823
511.4	3860
511.6	3891
511.8	3931
512.0	3972
512.2	4019
512.4	4062
512.6	4113
512.8	4162
513.0	4207
513.2	4247
513.4	4291
513.6	4327
513.8	4365
514.0	4409
514.2	4453
514.4	4495
514.6	4545
514.8	4596
515.0	4638
515.2	4685
515.4	4732
515.6	4775
515.8	4811
516.0	4849
516.2	4885
516.4	4921
516.6	4961
516.8	5009
517.0	5054
517.2	5100
517.4	5148
517.6	5189
517.8	5232
518.0	5275
518.2	5315
518.4	5353
518.6	5396
518.8	5437
519.0	5488
519.2	5533
519.4	5579
519.6	5623
519.8	5669
520.0	5704
520.2	5747
520.4	5784
520.6	5827
520.8	5872
521.0	5918
521.2	5950
521.4	5991
521.6	6020
521.8	6062
522.0	6108
522.2	6146
522.4	6176
522.6	6215
522.8	6252
523.0	6304
523.2	6350
523.4	6386
523.6	6419
523.8	6454
524.0	6498
524.2	6546
524.4	6586
524.6	6625
524.8	6655
525.0	6684
525.2	6720
525.4	6757
525.6	6792
525.8	6827
526.0	6852
526.2	6879
526.4	6912
526.6	6946
526.8	6983
527.0	7021
527.2	7055
527.4	7094
527.6	7130
527.8	7165
528.0	7199
528.2	7223
528.4	7257
528.6	7296
528.8	7333
529.0	7365
529.2	7391
529.4	7405
529.6	7428
529.8	7451
530.0	7482
530.2	7509
530.4	7538
530.6	7563
530.8	7584
531.0	7615
531.2	7651
531.4	7681
531.6	7711
531.8	7736
532.0	7752
532.2	7775
532.4	7794
532.6	7823
532.8	7853
533.0	7885
533.2	7905
533.4	7924
533.6	7939
533.8	7970
534.0	7996
534.2	8025
534.4	8046
534.6	8061
534.8	8076
535.0	8094
535.2	8113
535.4	8136
535.6	8154
535.8	8172
536.0	8188
536.2	8198
536.4	8210
536.6	8222
536.8	8237
537.0	8246
537.2	8253
537.4	8270
537.6	8285
537.8	8305
538.0	8329
538.2	8332
538.4	8335
538.6	8347
538.8	8355
539.0	8370
539.2	8382
539.4	8402
539.6	8411
539.8	8424
540.0	8438
540.2	8450
540.4	8454
540.6	8471
540.8	8483
541.0	8491
541.2	8498
541.4	8501
541.6	8493
541.8	8495
542.0	8513
542.2	8523
542.4	8529
542.6	8524
542.8	8517
543.0	8517
543.2	8521
543.4	8538
543.6	8542
543.8	8540
544.0	8545
544.2	8543
544.4	8542
544.6	8559
544.8	8556
545.0	8558
545.2	8568
545.4	8566
545.6	8553
545.8	8555
546.0	8547
546.2	8553
546.4	8563
546.6	8564
546.8	8555
547.0	8549
547.2	8535
547.4	8537
547.6	8529
547.8	8525
548.0	8529
548.2	8528
548.4	8521
548.6	8524
548.8	8515
549.0	8498
549.2	8491
549.4	8483
549.6	8477
549.8	8473
550.0	8471
550.2	8463
550.4	8459
550.6	8454
550.8	8445
551.0	8435
551.2	8433
551.4	8431
551.6	8433
551.8	8421
552.0	8407
552.2	8394
552.4	8378
552.6	8361
552.8	8349
553.0	8331
553.2	8323
553.4	8326
553.6	8318
553.8	8300
554.0	8278
554.2	8257
554.4	8247
554.6	8248
554.8	8246
555.0	8239
555.2	8227
555.4	8204
555.6	8190
555.8	8181
556.0	8173
556.2	8165
556.4	8154
556.6	8129
556.8	8112
557.0	8099
557.2	8086
557.4	8074
557.6	8065
557.8	8049
558.0	8030
558.2	8009
558.4	7992
558.6	7974
558.8	7958
559.0	7936
559.2	7920
559.4	7901
559.6	7888
559.8	7880
560.0	7865
560.2	7837
560.4	7822
560.6	7803
560.8	7792
561.0	7787
561.2	7762
561.4	7732
561.6	7704
561.8	7678
562.0	7656
562.2	7641
562.4	7623
562.6	7615
562.8	7598
563.0	7585
563.2	7561
563.4	7542
563.6	7521
563.8	7500
564.0	7478
564.2	7460
564.4	7446
564.6	7429
564.8	7402
565.0	7382
565.2	7363
565.4	7341
565.6	7323
565.8	7308
566.0	7286
566.2	7275
566.4	7252
566.6	7221
566.8	7192
567.0	7173
567.2	7152
567.4	7138
567.6	7119
567.8	7100
568.0	7083
568.2	7060
568.4	7035
568.6	7016
568.8	6997
569.0	6979
569.2	6962
569.4	6936
569.6	6911
569.8	6891
570.0	6875
570.2	6856
570.4	6835
570.6	6808
570.8	6776
571.0	6751
571.2	6730
571.4	6703
571.6	6680
571.8	6654
572.0	6631
572.2	6614
572.4	6600
572.6	6584
572.8	6564
573.0	6544
573.2	6521
573.4	6497
573.6	6474
573.8	6456
574.0	6436
574.2	6417
574.4	6389
574.6	6357
574.8	6329
575.0	6309
575.2	6290
575.4	6277
575.6	6257
575.8	6234
576.0	6213
576.2	6189
576.4	6159
576.6	6139
576.8	6119
577.0	6099
577.2	6081
577.4	6059
577.6	6039
577.8	6021
578.0	6000
578.2	5976
578.4	5953
578.6	5933
578.8	5915
579.0	5897
579.2	5870
579.4	5843
579.6	5819
579.8	5796
580.0	5777
580.2	5759
580.4	5740
580.6	5719
580.8	5700
581.0	5667
581.2	5641
581.4	5618
581.6	5601
581.8	5588
582.0	5567
582.2	5538
582.4	5510
582.6	5487
582.8	5464
583.0	5447
583.2	5426
583.4	5414
583.6	5392
583.8	5371
584.0	5347
584.2	5322
584.4	5297
584.6	5280
584.8	5260
585.0	5239
585.2	5222
585.4	5195
585.6	5170
585.8	5148
586.0	5129
586.2	5111
586.4	5095
586.6	5077
586.8	5058
587.0	5041
587.2	5019
587.4	4998
587.6	4977
587.8	4956
588.0	4932
588.2	4908
588.4	4879
588.6	4857
588.8	4840
589.0	4824
589.2	4808
589.4	4787
589.6	4763
589.8	4738
590.0	4716
590.2	4698
590.4	4679
590.6	4657
590.8	4634
591.0	4612
591.2	4598
591.4	4585
591.6	4571
591.8	4555
592.0	4532
592.2	4505
592.4	4478
592.6	4450
592.8	4430
593.0	4416
593.2	4406
593.4	4394
593.6	4375
593.8	4351
594.0	4331
594.2	4308
594.4	4285
594.6	4266
594.8	4243
595.0	4224
595.2	4209
595.4	4192
595.6	4176
595.8	4161
596.0	4143
596.2	4125
596.4	4102
596.6	4080
596.8	4063
597.0	4045
597.2	4035
597.4	4024
597.6	4004
597.8	3980
598.0	3957
598.2	3933
598.4	3919
598.6	3906
598.8	3883
599.0	3862
599.2	3839
599.4	3819
599.6	3805
599.8	3791
600.0	3775
600.2	3763
600.4	3741
600.6	3723
600.8	3704
601.0	3686
601.2	3672
601.4	3655
601.6	3635
601.8	3616
602.0	3597
602.2	3586
602.4	3570
602.6	3548
602.8	3533
603.0	3511
603.2	3491
603.4	3472
603.6	3452
603.8	3433
604.0	3420
604.2	3406
604.4	3391
604.6	3378
604.8	3361
605.0	3342
605.2	3325
605.4	3314
605.6	3297
605.8	3283
606.0	3265
606.2	3243
606.4	3225
606.6	3216
606.8	3202
607.0	3187
607.2	3170
607.4	3142
607.6	3124
607.8	3113
608.0	3101
608.2	3084
608.4	3067
608.6	3047
608.8	3029
609.0	3018
609.2	3006
609.4	2988
609.6	2976
609.8	2958
610.0	2936
610.2	2920
610.4	2901
610.6	2882
610.8	2871
611.0	2858
611.2	2847
611.4	2834
611.6	2820
611.8	2801
612.0	2784
612.2	2771
612.4	2753
612.6	2737
612.8	2725
613.0	2704
613.2	2689
613.4	2675
613.6	2659
613.8	2649
614.0	2638
614.2	2623
614.4	2610
614.6	2593
614.8	2578
615.0	2564
615.2	2547
615.4	2538
615.6	2528
615.8	2515
616.0	2500
616.2	2482
616.4	2460
616.6	2444
616.8	2429
617.0	2416
617.2	2403
617.4	2389
617.6	2379
617.8	2368
618.0	2354
618.2	2339
618.4	2328
618.6	2315
618.8	2307
619.0	2296
619.2	2278
619.4	2261
619.6	2246
619.8	2235
620.0	2224
620.2	2210
620.4	2194
620.6	2183
620.8	2172
621.0	2162
621.2	2149
621.4	2133
621.6	2118
621.8	2106
622.0	2094
622.2	2080
622.4	2068
622.6	2060
622.8	2052
623.0	2038
623.2	2021
623.4	2006
623.6	1990
623.8	1981
624.0	1973
624.2	1962
624.4	1950
624.6	1940
624.8	1929
625.0	1920
625.2	1910
625.4	1902
625.6	1890
625.8	1878
626.0	1864
626.2	1846
626.4	1832
626.6	1820
626.8	1807
627.0	1798
627.2	1788
627.4	1777
627.6	1767
627.8	1756
628.0	1744
628.2	1734
628.4	1722
628.6	1712
628.8	1702
629.0	1692
629.2	1686
629.4	1680
629.6	1666
629.8	1651
630.0	1638
630.2	1625
630.4	1616
630.6	1607
630.8	1596
631.0	1587
631.2	1581
631.4	1572
631.6	1563
631.8	1551
632.0	1539
632.2	1525
632.4	1518
632.6	1508
632.8	1506
633.0	1500
633.2	1491
633.4	1477
633.6	1467
633.8	1458
634.0	1453
634.2	1443
634.4	1431
634.6	1418
634.8	1407
635.0	1398
635.2	1392
635.4	1384
635.6	1376
635.8	1371
636.0	1360
636.2	1350
636.4	1342
636.6	1334
636.8	1325
637.0	1318
637.2	1306
637.4	1295
637.6	1288
637.8	1281
638.0	1274
638.2	1264
638.4	1256
638.6	1249
638.8	1245
639.0	1237
639.2	1229
639.4	1218
639.6	1207
639.8	1204
640.0	1197
640.2	1188
640.4	1179
640.6	1168
640.8	1157
641.0	1155
641.2	1150
641.4	1146
641.6	1139
641.8	1130
642.0	1119
642.2	1114
642.4	1108
642.6	1101
642.8	1096
643.0	1087
643.2	1080
643.4	1074
643.6	1068
643.8	1062
644.0	1057
644.2	1048
644.4	1040
644.6	1029
644.8	1021
645.0	1014
645.2	1011
645.4	1003
645.6	997.8
645.8	988.5
646.0	979.2
646.2	970.6
646.4	969.4
646.6	965.3
646.8	963.1
647.0	953.4
647.2	943.3
647.4	937.3
647.6	934.4
647.8	928.6
648.0	923.2
648.2	912.7
648.4	905.7
648.6	901.9
648.8	895.1
649.0	889.5
649.2	883.2
649.4	877.6
649.6	873.9
649.8	868.2
650.0	858.3
650.2	851.7
650.4	843.6
650.6	839.5
650.8	837.0
651.0	829.9
651.2	825.2
651.4	820.5
651.6	814.8
651.8	809.3
652.0	806.2
652.2	797.5
652.4	791.5
652.6	784.8
652.8	779.4
653.0	775.0
653.2	772.8
653.4	767.6
653.6	761.3
653.8	756.1
654.0	752.9
654.2	748.7
654.4	742.7
654.6	736.0
654.8	729.9
655.0	723.6
655.2	720.1
655.4	713.7
655.6	709.5
655.8	705.1
656.0	699.8
656.2	694.4
656.4	689.6
656.6	683.0
656.8	678.8
657.0	674.9
657.2	669.0
657.4	666.3
657.6	663.0
657.8	659.6
658.0	656.2
658.2	649.0
658.4	642.0
658.6	637.6
658.8	633.7
659.0	632.7
659.2	632.3
659.4	626.0
659.6	620.4
659.8	614.6
660.0	608.9
660.2	605.1
660.4	601.5
660.6	596.7
660.8	591.9
661.0	588.3
661.2	584.6
661.4	580.7
661.6	577.7
661.8	574.7
662.0	571.0
662.2	568.6
662.4	563.9
662.6	556.9
662.8	550.7
663.0	545.6
663.2	541.3
663.4	539.2
663.6	537.5
663.8	535.0
664.0	529.9
664.2	524.4
664.4	519.9
664.6	517.5
664.8	515.3
665.0	512.2
665.2	507.7
665.4	503.6
665.6	500.8
665.8	499.8
666.0	495.6
666.2	491.8
666.4	489.3
666.6	484.1
666.8	479.7
667.0	475.9
667.2	471.3
667.4	470.1
667.6	468.6
667.8	463.8
668.0	460.8
668.2	456.8
668.4	454.5
668.6	454.2
668.8	452.2
669.0	448.9
669.2	445.4
669.4	438.5
669.6	434.1
669.8	430.5
670.0	427.4
670.2	424.6
670.4	422.5
670.6	418.9
670.8	417.2
671.0	413.5
671.2	409.8
671.4	406.5
671.6	404.2
671.8	401.1
672.0	398.9
672.2	395.2
672.4	391.5
672.6	389.0
672.8	386.9
673.0	383.9
673.2	381.0
673.4	378.6
673.6	375.7
673.8	372.2
674.0	369.9
674.2	366.1
674.4	363.4
674.6	362.3
674.8	360.3
675.0	357.7
675.2	356.4
675.4	352.8
675.6	350.4
675.8	348.8
676.0	346.1
676.2	344.3
676.4	342.3
676.6	339.6
676.8	337.1
677.0	334.3
677.2	331.8
677.4	329.9
677.6	325.8
677.8	322.4
678.0	319.2
678.2	316.5
678.4	315.4
678.6	313.3
678.8	309.8
679.0	308.1
679.2	305.7
679.4	303.6
679.6	302.0
679.8	300.4
680.0	298.2
680.2	297.3
680.4	293.6
680.6	289.9
680.8	287.1
681.0	286.2
681.2	284.4
681.4	284.2
681.6	281.9
681.8	279.8
682.0	277.4
682.2	274.8
682.4	272.1
682.6	270.9
682.8	270.5
683.0	269.1
683.2	267.7
683.4	264.6
683.6	262.2
683.8	259.9
684.0	258.2
684.2	256.7
684.4	255.1
684.6	253.7
684.8	252.5
685.0	249.5
685.2	246.1
685.4	244.6
685.6	242.0
685.8	242.7
686.0	241.2
686.2	238.7
686.4	236.6
686.6	235.1
686.8	233.6
687.0	232.0
687.2	230.2
687.4	228.2
687.6	226.6
687.8	224.2
688.0	222.8
688.2	219.6
688.4	219.1
688.6	217.5
688.8	216.8
689.0	214.7
689.2	212.8
689.4	210.8
689.6	209.6
689.8	209.3
690.0	209.0
690.2	207.9
690.4	206.4
690.6	204.6
690.8	202.6
691.0	201.5
691.2	199.7
691.4	198.0
691.6	196.8
691.8	194.8
692.0	192.5
692.2	190.8
692.4	189.8
692.6	189.9
692.8	189.9
693.0	188.7
693.2	186.4
693.4	183.8
693.6	181.6
693.8	180.5
694.0	179.4
694.2	178.4
694.4	177.2
694.6	176.1
694.8	174.5
695.0	173.9
695.2	173.4
695.4	172.3
695.6	171.0
695.8	170.1
696.0	168.4
696.2	167.9
696.4	166.3
696.6	164.8
696.8	163.7
697.0	163.3
697.2	163.8
697.4	164.0
697.6	161.9
697.8	159.6
698.0	158.2
698.2	157.1
698.4	156.3
698.6	155.8
698.8	154.3
699.0	153.0
699.2	152.2
699.4	151.1
699.6	151.1
699.8	149.5
700.0	148.2
700.2	147.2
700.4	145.7
700.6	144.5
700.8	145.2
701.0	144.0
701.2	143.3
701.4	141.8
701.6	140.3
701.8	138.8
702.0	137.3
702.2	136.5
702.4	136.1
702.6	135.8
702.8	135.1
703.0	134.6
703.2	133.8
703.4	132.2
703.6	131.8
703.8	131.7
704.0	131.0
704.2	131.5
704.4	131.0
704.6	129.5
704.8	128.3
705.0	126.9
705.2	125.3
705.4	124.1
705.6	122.9
705.8	123.4
706.0	122.5
706.2	122.9
706.4	122.3
706.6	121.0
706.8	119.5
707.0	118.1
707.2	116.3
707.4	116.4
707.6	115.8
707.8	116.0
708.0	115.2
708.2	113.4
708.4	112.7
708.6	112.2
708.8	112.3
709.0	112.5
709.2	111.1
709.4	109.7
709.6	108.7
709.8	107.0
710.0	107.1
710.2	106.4
710.4	105.5
710.6	104.2
710.8	103.6
711.0	102.9
711.2	102.7
711.4	102.7
711.6	102.2
711.8	100.2
712.0	99.87
712.2	99.45
712.4	98.85
712.6	98.73
712.8	97.93
713.0	96.90
713.2	97.07
713.4	95.84
713.6	95.03
713.8	94.52
714.0	93.50
714.2	92.41
714.4	92.42
714.6	91.61
714.8	91.06
715.0	90.88
715.2	90.41
715.4	89.69
715.6	89.55
715.8	88.39
716.0	87.49
716.2	85.85
716.4	84.72
716.6	83.80
716.8	83.48
717.0	82.41
717.2	82.17
717.4	81.52
717.6	81.44
717.8	81.85
718.0	82.01
718.2	80.72
718.4	79.35
718.6	78.35
718.8	77.76
719.0	77.56
719.2	76.87
719.4	75.99
719.6	75.85
719.8	76.17
720.0	76.30
720.2	75.35
720.4	74.05
720.6	72.86
720.8	72.28
721.0	71.68
721.2	71.52
721.4	71.19
721.6	70.72
721.8	70.32
722.0	69.80
722.2	69.01
722.4	68.64
722.6	68.31
722.8	67.87
723.0	67.43
723.2	67.08
723.4	66.31
723.6	64.88
723.8	63.60
724.0	62.99
724.2	62.88
724.4	63.59
724.6	62.83
724.8	62.11
725.0	61.73
725.2	61.44
725.4	61.18
725.6	61.13
725.8	60.32
726.0	60.30
726.2	59.93
726.4	59.56
726.6	58.56
726.8	58.14
727.0	58.11
727.2	57.40
727.4	56.44
727.6	56.03
727.8	55.53
728.0	55.34
728.2	55.23
728.4	54.56
728.6	53.92
728.8	53.42
729.0	52.94
729.2	52.49
729.4	51.97
729.6	51.95
729.8	51.57
730.0	51.03
730.2	51.20
730.4	50.83
730.6	50.15
730.8	49.85
731.0	49.29
731.2	48.40
731.4	48.18
731.6	47.90
731.8	47.32
732.0	47.17
732.2	47.13
732.4	46.56
732.6	46.11
732.8	46.16
733.0	45.36
733.2	45.02
733.4	44.46
733.6	43.80
733.8	43.25
734.0	43.32
734.2	42.96
734.4	42.57
734.6	42.10
734.8	41.88
735.0	41.39
735.2	41.42
735.4	41.48
735.6	41.29
735.8	41.23
736.0	41.32
736.2	40.88
736.4	40.38
736.6	40.18
736.8	39.65
737.0	39.47
737.2	39.13
737.4	38.61
737.6	38.01
737.8	37.52
738.0	37.11
738.2	37.22
738.4	37.10
738.6	37.62
738.8	37.25
739.0	36.77
739.2	35.58
739.4	34.66
739.6	34.18
739.8	34.60
740.0	34.67
740.2	35.67
740.4	35.03
740.6	34.85
740.8	34.31
741.0	34.02
741.2	33.78
741.4	33.95
741.6	33.01
741.8	32.63
742.0	32.18
742.2	32.22
742.4	32.48
742.6	32.67
742.8	32.47
743.0	31.74
743.2	31.12
743.4	30.51
743.6	30.47
743.8	30.53
744.0	30.61
744.2	30.24
744.4	30.06
744.6	29.96
744.8	29.62
745.0	28.96
745.2	28.50
745.4	28.37
745.6	28.54
745.8	28.87
746.0	28.30
746.2	27.64
746.4	27.26
746.6	26.98
746.8	26.78
747.0	26.84
747.2	26.42
747.4	26.36
747.6	26.29
747.8	25.80
748.0	25.59
748.2	25.26
748.4	25.12
748.6	24.76
748.8	24.43
749.0	24.12
749.2	24.49
749.4	24.89
749.6	24.99
749.8	24.58
750.0	24.31
750.2	23.84
750.4	23.86
750.6	23.98
750.8	23.76
751.0	23.44
751.2	23.41
751.4	23.38
751.6	23.52
751.8	23.28
752.0	22.88
752.2	22.48
752.4	21.98
752.6	22.12
752.8	22.18
753.0	22.11
753.2	21.81
753.4	21.90
753.6	21.23
753.8	20.95
754.0	20.67
754.2	20.82
754.4	20.86
754.6	20.86
754.8	20.40
755.0	20.05
755.2	20.17
755.4	20.20
755.6	20.15
755.8	19.73
756.0	19.14
756.2	18.91
756.4	19.11
756.6	19.01
756.8	19.15
757.0	19.05
757.2	18.80
757.4	18.77
757.6	18.80
757.8	18.61
758.0	18.60
758.2	18.45
758.4	18.17
758.6	17.93
758.8	17.72
759.0	17.74
759.2	18.08
759.4	18.16
759.6	17.98
759.8	17.65
760.0	17.23
760.2	16.98
760.4	16.92
760.6	16.82
760.8	16.63
761.0	16.59
761.2	16.62
761.4	16.67
761.6	16.60
761.8	16.46
762.0	15.83
762.2	15.57
762.4	15.46
762.6	15.79
762.8	16.16
763.0	15.90
763.2	15.39
763.4	15.00
763.6	14.75
763.8	14.90
764.0	15.31
764.2	15.14
764.4	14.82
764.6	14.30
764.8	14.05
765.0	13.96
765.2	14.27
765.4	14.51
765.6	14.58
765.8	14.49
766.0	14.37
766.2	14.25
766.4	14.11
766.6	13.83
766.8	13.70
767.0	13.59
767.2	13.65
767.4	13.42
767.6	13.09
767.8	12.86
768.0	12.73
768.2	12.67
768.4	12.90
768.6	12.94
768.8	12.87
769.0	12.83
769.2	12.93
769.4	12.93
769.6	12.76
769.8	12.54
770.0	12.48
770.2	12.22
770.4	12.20
770.6	12.18
770.8	11.71
771.0	11.43
771.2	11.49
771.4	11.28
771.6	11.33
771.8	11.34
772.0	11.21
772.2	11.15
772.4	11.17
772.6	11.22
772.8	11.50
773.0	11.20
773.2	10.94
773.4	10.87
773.6	11.11
773.8	11.28
774.0	11.50
774.2	11.08
774.4	10.76
774.6	10.73
774.8	10.90
775.0	10.90
775.2	10.87
775.4	10.83
775.6	10.70
775.8	10.83
776.0	11.15
776.2	11.27
776.4	11.31
776.6	11.03
776.8	10.84
777.0	10.97
777.2	10.82
777.4	10.59
777.6	10.36
777.8	9.941
778.0	10.07
778.2	10.31
778.4	10.41
778.6	10.72
778.8	10.80
779.0	11.14
779.2	11.19
779.4	11.02
779.6	11.04
779.8	11.43
780.0	11.80
780.2	12.31
780.4	12.30
780.6	12.21
780.8	12.07
781.0	12.15
781.2	12.29
781.4	12.44
781.6	12.62
781.8	13.02
782.0	13.50
782.2	13.83
782.4	14.12
782.6	14.37
782.8	14.35
783.0	14.61
783.2	15.13
783.4	15.52
783.6	15.94
783.8	16.52
784.0	16.92
784.2	17.46
784.4	18.01
784.6	18.26
784.8	18.64
785.0	18.98
785.2	19.34
785.4	19.61
785.6	19.86
785.8	20.49
786.0	21.62
786.2	22.33
786.4	23.00
786.6	23.06
786.8	22.97
787.0	23.46
787.2	24.06
787.4	24.75
787.6	25.51
787.8	26.03
788.0	26.70
788.2	27.46
788.4	28.15
788.6	29.07
788.8	29.92
789.0	30.62
789.2	31.35
789.4	31.61
789.6	31.50
789.8	31.91
790.0	32.88
790.2	34.18
790.4	35.05
790.6	35.84
790.8	36.02
791.0	36.17
791.2	37.22
791.4	37.66
791.6	37.75
791.8	38.59
792.0	39.46
792.2	40.30
792.4	41.26
792.6	41.30
792.8	41.68
793.0	42.28
793.2	42.96
793.4	43.96
793.6	44.33
793.8	44.36
794.0	44.88
794.2	45.26
794.4	45.83
794.6	46.92
794.8	47.17
795.0	47.64
795.2	48.32
795.4	48.56
795.6	49.46
795.8	50.06
796.0	50.54
796.2	51.29
796.4	51.22
796.6	50.53
796.8	50.24
797.0	50.43
797.2	51.14
797.4	52.20
797.6	52.84
797.8	52.72
798.0	52.70
798.2	52.76
798.4	52.30
798.6	52.52
798.8	52.83
799.0	52.42
799.2	52.55
799.4	52.49
799.6	52.15
799.8	52.07
800.0	52.82
800.2	52.90
800.4	53.49
800.6	53.65
800.8	53.28
801.0	52.26
801.2	52.25
801.4	51.85
801.6	51.69
801.8	51.47
802.0	51.17
802.2	51.28
802.4	51.67
802.6	51.65
802.8	51.24
803.0	51.10
803.2	50.40
803.4	50.54
803.6	50.19
803.8	49.69
804.0	49.41
804.2	49.28
804.4	48.58
804.6	48.09
804.8	47.89
805.0	47.36
805.2	47.14
805.4	46.79
805.6	46.25
805.8	45.76
806.0	45.52
806.2	44.70
806.4	44.10
806.6	43.37
806.8	43.10
807.0	42.93
807.2	42.79
807.4	42.65
807.6	42.26
807.8	41.54
808.0	40.74
808.2	40.09
808.4	39.69
808.6	39.12
808.8	38.91
809.0	38.84
809.2	37.96
809.4	37.35
809.6	36.61
809.8	35.39
810.0	34.94
810.2	34.69
810.4	34.32
810.6	33.83
810.8	33.71
811.0	33.16
811.2	32.58
811.4	32.00
811.6	31.95
811.8	31.40
812.0	31.31
812.2	30.56
812.4	29.30
812.6	28.19
812.8	27.81
813.0	27.65
813.2	27.60
813.4	27.04
813.6	26.00
813.8	25.47
814.0	25.27
814.2	25.17
814.4	24.66
814.6	24.07
814.8	23.20
815.0	22.77
815.2	22.48
815.4	22.08
815.6	21.54
815.8	21.28
816.0	20.85
816.2	20.45
816.4	19.79
816.6	19.08
816.8	18.47
817.0	18.21
817.2	17.53
817.4	17.37
817.6	16.89
817.8	16.60
818.0	16.24
818.2	16.00
818.4	15.60
818.6	15.63
818.8	15.14
819.0	14.80
819.2	14.51
819.4	14.09
819.6	14.04
819.8	13.66
820.0	13.23
820.2	12.69
820.4	12.37
820.6	12.11
820.8	12.01
821.0	11.80
821.2	11.50
821.4	10.84
821.6	10.40
821.8	10.03
822.0	9.679
822.2	9.588
822.4	9.509
822.6	9.283
822.8	9.132
823.0	8.984
823.2	8.767
823.4	8.670
823.6	8.641
823.8	8.214
824.0	7.805
824.2	7.496
824.4	7.250
824.6	7.249
824.8	7.143
825.0	6.934
825.2	6.946
825.4	6.901
825.6	6.740
825.8	6.599
826.0	6.203
826.2	5.893
826.4	6.039
826.6	6.063
826.8	5.868
827.0	5.679
827.2	5.365
827.4	5.211
827.6	5.258
827.8	5.149
828.0	5.080
828.2	5.052
828.4	4.977
828.6	4.890
828.8	4.810
829.0	4.691
829.2	4.659
829.4	4.612
829.6	4.663
829.8	4.493
830.0	4.455
830.2	4.354
830.4	4.380
830.6	4.374
830.8	4.419
831.0	4.214
831.2	4.095
831.4	3.948
831.6	3.968
831.8	3.921
832.0	3.922
832.2	3.859
832.4	3.782
832.6	3.800
832.8	3.785
833.0	3.700
833.2	3.689
833.4	3.658
833.6	3.584
833.8	3.592
834.0	3.386
834.2	3.276
834.4	3.369
834.6	3.404
834.8	3.386
835.0	3.324
835.2	3.232
835.4	3.186
835.6	3.214
835.8	3.163
836.0	3.100
836.2	3.068
836.4	3.256
836.6	3.387
836.8	3.377
837.0	3.225
837.2	3.040
837.4	2.860
837.6	2.967
837.8	3.050
838.0	3.153
838.2	3.162
838.4	3.084
838.6	2.960
838.8	2.900
839.0	2.793
839.2	2.788
839.4	2.794
839.6	2.947
839.8	3.210
840.0	3.299
840.2	3.292
840.4	3.038
840.6	2.695
840.8	2.707
841.0	2.781
841.2	2.790
841.4	2.824
841.6	2.616
841.8	2.480
842.0	2.538
842.2	2.504
842.4	2.597
842.6	2.670
842.8	2.777
843.0	2.799
843.2	2.749
843.4	2.731
843.6	2.648
843.8	2.550
844.0	2.599
844.2	2.638
844.4	2.697
844.6	2.730
844.8	2.585
845.0	2.556
845.2	2.546
845.4	2.607
845.6	2.723
845.8	2.573
846.0	2.497
846.2	2.493
846.4	2.452
846.6	2.479
846.8	2.579
847.0	2.588
847.2	2.640
847.4	2.598
847.6	2.474
847.8	2.408
848.0	2.359
848.2	2.515
848.4	2.593
848.6	2.575
848.8	2.443
849.0	2.367
849.2	2.318
849.4	2.448
849.6	2.515
849.8	2.487
850.0	2.301

