Sample:	'20211010A(EM)
File name:	r-NI-c-dots-CHO 100S2-.FDS
Run date:	'20:59:53, 03/22/2023
Operator:	Administrator
Comment:	'

Instrument
Model:	F-4700 FL Spectrophotometer
Serial number:	2019-001
ROM Version:	5J24010 00

Instrument parameters
Measurement type:	Wavelength scan
Scan mode:	Emission
Data mode:	Fluorescence
EX WL:	480.0 nm
EM  Start WL:	500.0 nm
EM  End WL:	900.0 nm
Scan speed:	1200 nm/min
Delay:	0.0 s
EX Slit:	10.0 nm
EM Slit:	10.0 nm
PMT Voltage:	600 V
Response:	0.002 s
Corrected spectra:	Off
Shutter control:	On

Processing performed
Savitsky-Golay smoothed
Smoothing order:	3
Number of points:	7
Number of times:	1

Peak integration
Integration method:	Rectangular
Sensitivity:	1
Threshold:	1.000

Peaks
No.	Start(nm)	Apex(nm)	End(nm)	Height(Data)	Valley(nm)	Valley(Data)
1	500.0	606.8	607.0	3326	607.0	3315
2	607.0	612.2	613.0	3377	613.0	3352
3	613.0	614.8	615.4	3372	615.4	3348
4	615.4	617.0	792.8	3360	792.8	33.40
5	792.8	794.2	795.2	35.10	795.2	31.94
6	795.2	797.0	800.8	32.99	800.8	28.99
7	800.8	802.4	804.8	30.21	804.8	26.74
8	804.8	805.4	815.8	28.71	815.8	21.29
9	815.8	816.6	820.8	22.47	820.8	17.83
10	820.8	822.8	824.8	19.06	824.8	16.15
11	824.8	825.4	830.0	17.54	830.0	13.23
12	830.0	830.8	900.0	14.57	900.0	3.157

Data points
nm	Data
500.0	397.5
500.2	402.1
500.4	404.8
500.6	407.4
500.8	413.7
501.0	419.8
501.2	427.9
501.4	431.2
501.6	434.4
501.8	439.1
502.0	447.1
502.2	453.5
502.4	461.0
502.6	463.2
502.8	466.4
503.0	472.8
503.2	480.3
503.4	485.6
503.6	492.9
503.8	495.1
504.0	502.2
504.2	510.1
504.4	519.2
504.6	524.8
504.8	529.7
505.0	533.0
505.2	538.7
505.4	542.7
505.6	554.6
505.8	562.9
506.0	568.6
506.2	573.2
506.4	578.5
506.6	582.4
506.8	591.7
507.0	599.6
507.2	607.4
507.4	614.2
507.6	622.7
507.8	626.0
508.0	628.5
508.2	634.3
508.4	643.8
508.6	655.3
508.8	665.1
509.0	667.7
509.2	669.6
509.4	674.2
509.6	682.1
509.8	690.0
510.0	700.0
510.2	708.4
510.4	716.7
510.6	722.8
510.8	728.8
511.0	733.0
511.2	740.2
511.4	748.2
511.6	756.2
511.8	761.9
512.0	767.3
512.2	772.9
512.4	782.1
512.6	789.9
512.8	801.3
513.0	807.1
513.2	810.5
513.4	814.8
513.6	825.2
513.8	831.9
514.0	840.9
514.2	848.7
514.4	855.8
514.6	867.9
514.8	874.7
515.0	881.0
515.2	886.7
515.4	897.7
515.6	907.1
515.8	917.9
516.0	923.0
516.2	931.2
516.4	939.2
516.6	946.0
516.8	953.3
517.0	959.7
517.2	965.1
517.4	973.3
517.6	981.5
517.8	987.6
518.0	996.7
518.2	1006
518.4	1006
518.6	1011
518.8	1016
519.0	1023
519.2	1036
519.4	1051
519.6	1055
519.8	1065
520.0	1074
520.2	1081
520.4	1093
520.6	1099
520.8	1101
521.0	1107
521.2	1111
521.4	1116
521.6	1126
521.8	1138
522.0	1144
522.2	1152
522.4	1158
522.6	1167
522.8	1172
523.0	1181
523.2	1187
523.4	1197
523.6	1209
523.8	1219
524.0	1225
524.2	1226
524.4	1232
524.6	1239
524.8	1250
525.0	1259
525.2	1267
525.4	1271
525.6	1275
525.8	1281
526.0	1286
526.2	1295
526.4	1305
526.6	1313
526.8	1319
527.0	1331
527.2	1335
527.4	1339
527.6	1342
527.8	1348
528.0	1358
528.2	1366
528.4	1375
528.6	1378
528.8	1381
529.0	1390
529.2	1400
529.4	1403
529.6	1411
529.8	1414
530.0	1419
530.2	1427
530.4	1436
530.6	1438
530.8	1445
531.0	1452
531.2	1462
531.4	1473
531.6	1478
531.8	1479
532.0	1484
532.2	1492
532.4	1500
532.6	1505
532.8	1510
533.0	1517
533.2	1527
533.4	1539
533.6	1545
533.8	1545
534.0	1549
534.2	1551
534.4	1556
534.6	1566
534.8	1574
535.0	1577
535.2	1582
535.4	1588
535.6	1594
535.8	1597
536.0	1602
536.2	1604
536.4	1607
536.6	1616
536.8	1628
537.0	1628
537.2	1629
537.4	1629
537.6	1632
537.8	1641
538.0	1651
538.2	1658
538.4	1665
538.6	1668
538.8	1673
539.0	1676
539.2	1682
539.4	1687
539.6	1690
539.8	1698
540.0	1704
540.2	1709
540.4	1714
540.6	1714
540.8	1711
541.0	1718
541.2	1722
541.4	1726
541.6	1731
541.8	1735
542.0	1739
542.2	1745
542.4	1752
542.6	1755
542.8	1757
543.0	1759
543.2	1764
543.4	1767
543.6	1772
543.8	1775
544.0	1779
544.2	1782
544.4	1788
544.6	1792
544.8	1794
545.0	1797
545.2	1804
545.4	1806
545.6	1810
545.8	1815
546.0	1820
546.2	1826
546.4	1830
546.6	1834
546.8	1831
547.0	1834
547.2	1836
547.4	1841
547.6	1845
547.8	1855
548.0	1857
548.2	1857
548.4	1855
548.6	1857
548.8	1860
549.0	1869
549.2	1871
549.4	1874
549.6	1879
549.8	1884
550.0	1887
550.2	1886
550.4	1880
550.6	1882
550.8	1893
551.0	1904
551.2	1909
551.4	1911
551.6	1912
551.8	1916
552.0	1921
552.2	1921
552.4	1919
552.6	1921
552.8	1923
553.0	1934
553.2	1940
553.4	1943
553.6	1941
553.8	1941
554.0	1943
554.2	1951
554.4	1956
554.6	1964
554.8	1960
555.0	1963
555.2	1964
555.4	1968
555.6	1968
555.8	1976
556.0	1982
556.2	1985
556.4	1983
556.6	1982
556.8	1990
557.0	1997
557.2	2005
557.4	2006
557.6	2006
557.8	2012
558.0	2024
558.2	2023
558.4	2024
558.6	2025
558.8	2027
559.0	2032
559.2	2037
559.4	2037
559.6	2039
559.8	2043
560.0	2042
560.2	2046
560.4	2058
560.6	2063
560.8	2066
561.0	2069
561.2	2072
561.4	2073
561.6	2081
561.8	2077
562.0	2073
562.2	2074
562.4	2082
562.6	2091
562.8	2103
563.0	2105
563.2	2104
563.4	2106
563.6	2107
563.8	2114
564.0	2118
564.2	2119
564.4	2120
564.6	2123
564.8	2125
565.0	2131
565.2	2131
565.4	2133
565.6	2137
565.8	2140
566.0	2150
566.2	2158
566.4	2159
566.6	2165
566.8	2172
567.0	2172
567.2	2180
567.4	2182
567.6	2180
567.8	2184
568.0	2189
568.2	2195
568.4	2202
568.6	2205
568.8	2209
569.0	2218
569.2	2223
569.4	2230
569.6	2233
569.8	2235
570.0	2237
570.2	2245
570.4	2246
570.6	2246
570.8	2258
571.0	2268
571.2	2274
571.4	2283
571.6	2286
571.8	2289
572.0	2299
572.2	2301
572.4	2301
572.6	2306
572.8	2308
573.0	2314
573.2	2321
573.4	2323
573.6	2323
573.8	2326
574.0	2330
574.2	2340
574.4	2347
574.6	2355
574.8	2356
575.0	2359
575.2	2366
575.4	2370
575.6	2374
575.8	2388
576.0	2395
576.2	2401
576.4	2406
576.6	2407
576.8	2409
577.0	2417
577.2	2421
577.4	2425
577.6	2431
577.8	2444
578.0	2454
578.2	2460
578.4	2463
578.6	2464
578.8	2469
579.0	2482
579.2	2490
579.4	2496
579.6	2500
579.8	2505
580.0	2517
580.2	2529
580.4	2534
580.6	2540
580.8	2545
581.0	2548
581.2	2553
581.4	2558
581.6	2570
581.8	2582
582.0	2590
582.2	2598
582.4	2599
582.6	2598
582.8	2605
583.0	2614
583.2	2617
583.4	2628
583.6	2632
583.8	2636
584.0	2650
584.2	2663
584.4	2670
584.6	2672
584.8	2665
585.0	2669
585.2	2679
585.4	2683
585.6	2689
585.8	2694
586.0	2704
586.2	2718
586.4	2726
586.6	2739
586.8	2745
587.0	2751
587.2	2762
587.4	2766
587.6	2765
587.8	2773
588.0	2777
588.2	2781
588.4	2789
588.6	2801
588.8	2810
589.0	2821
589.2	2826
589.4	2826
589.6	2828
589.8	2837
590.0	2844
590.2	2857
590.4	2862
590.6	2872
590.8	2880
591.0	2891
591.2	2895
591.4	2898
591.6	2896
591.8	2903
592.0	2919
592.2	2934
592.4	2944
592.6	2944
592.8	2943
593.0	2944
593.2	2957
593.4	2968
593.6	2986
593.8	2999
594.0	3011
594.2	3014
594.4	3018
594.6	3017
594.8	3023
595.0	3023
595.2	3032
595.4	3038
595.6	3050
595.8	3056
596.0	3062
596.2	3064
596.4	3065
596.6	3068
596.8	3073
597.0	3084
597.2	3096
597.4	3109
597.6	3110
597.8	3106
598.0	3104
598.2	3110
598.4	3122
598.6	3136
598.8	3144
599.0	3148
599.2	3148
599.4	3142
599.6	3145
599.8	3156
600.0	3166
600.2	3174
600.4	3180
600.6	3183
600.8	3189
601.0	3200
601.2	3205
601.4	3211
601.6	3214
601.8	3215
602.0	3220
602.2	3227
602.4	3227
602.6	3229
602.8	3237
603.0	3243
603.2	3246
603.4	3259
603.6	3262
603.8	3264
604.0	3278
604.2	3277
604.4	3273
604.6	3283
604.8	3284
605.0	3284
605.2	3296
605.4	3295
605.6	3300
605.8	3301
606.0	3306
606.2	3313
606.4	3320
606.6	3322
606.8	3326
607.0	3315
607.2	3318
607.4	3319
607.6	3319
607.8	3322
608.0	3324
608.2	3330
608.4	3337
608.6	3340
608.8	3342
609.0	3343
609.2	3349
609.4	3355
609.6	3355
609.8	3353
610.0	3349
610.2	3352
610.4	3355
610.6	3356
610.8	3360
611.0	3360
611.2	3361
611.4	3369
611.6	3364
611.8	3367
612.0	3375
612.2	3377
612.4	3367
612.6	3362
612.8	3353
613.0	3352
613.2	3359
613.4	3365
613.6	3361
613.8	3359
614.0	3355
614.2	3361
614.4	3365
614.6	3372
614.8	3372
615.0	3363
615.2	3353
615.4	3348
615.6	3353
615.8	3358
616.0	3359
616.2	3352
616.4	3356
616.6	3350
616.8	3359
617.0	3360
617.2	3353
617.4	3343
617.6	3341
617.8	3332
618.0	3333
618.2	3336
618.4	3333
618.6	3331
618.8	3329
619.0	3320
619.2	3323
619.4	3321
619.6	3319
619.8	3314
620.0	3311
620.2	3303
620.4	3302
620.6	3300
620.8	3297
621.0	3295
621.2	3294
621.4	3294
621.6	3295
621.8	3298
622.0	3283
622.2	3272
622.4	3267
622.6	3269
622.8	3272
623.0	3277
623.2	3266
623.4	3258
623.6	3247
623.8	3241
624.0	3236
624.2	3240
624.4	3239
624.6	3233
624.8	3219
625.0	3210
625.2	3208
625.4	3211
625.6	3213
625.8	3202
626.0	3194
626.2	3182
626.4	3176
626.6	3172
626.8	3171
627.0	3169
627.2	3172
627.4	3172
627.6	3158
627.8	3147
628.0	3134
628.2	3124
628.4	3118
628.6	3119
628.8	3105
629.0	3103
629.2	3101
629.4	3098
629.6	3092
629.8	3084
630.0	3071
630.2	3073
630.4	3070
630.6	3063
630.8	3055
631.0	3038
631.2	3026
631.4	3023
631.6	3019
631.8	3014
632.0	3004
632.2	2991
632.4	2982
632.6	2974
632.8	2978
633.0	2979
633.2	2968
633.4	2956
633.6	2951
633.8	2942
634.0	2936
634.2	2927
634.4	2913
634.6	2908
634.8	2905
635.0	2900
635.2	2892
635.4	2883
635.6	2869
635.8	2855
636.0	2847
636.2	2840
636.4	2839
636.6	2838
636.8	2827
637.0	2813
637.2	2799
637.4	2787
637.6	2778
637.8	2771
638.0	2763
638.2	2763
638.4	2751
638.6	2744
638.8	2734
639.0	2725
639.2	2718
639.4	2719
639.6	2709
639.8	2702
640.0	2692
640.2	2683
640.4	2668
640.6	2660
640.8	2648
641.0	2634
641.2	2626
641.4	2619
641.6	2613
641.8	2611
642.0	2601
642.2	2590
642.4	2579
642.6	2567
642.8	2561
643.0	2557
643.2	2550
643.4	2544
643.6	2530
643.8	2515
644.0	2505
644.2	2500
644.4	2498
644.6	2493
644.8	2484
645.0	2473
645.2	2462
645.4	2444
645.6	2428
645.8	2416
646.0	2402
646.2	2400
646.4	2400
646.6	2398
646.8	2395
647.0	2385
647.2	2365
647.4	2347
647.6	2333
647.8	2326
648.0	2325
648.2	2319
648.4	2309
648.6	2298
648.8	2292
649.0	2284
649.2	2280
649.4	2270
649.6	2259
649.8	2243
650.0	2233
650.2	2225
650.4	2220
650.6	2212
650.8	2208
651.0	2202
651.2	2193
651.4	2182
651.6	2173
651.8	2161
652.0	2148
652.2	2140
652.4	2131
652.6	2118
652.8	2114
653.0	2105
653.2	2099
653.4	2093
653.6	2082
653.8	2066
654.0	2061
654.2	2052
654.4	2043
654.6	2034
654.8	2019
655.0	2012
655.2	2014
655.4	2011
655.6	2000
655.8	1990
656.0	1975
656.2	1961
656.4	1954
656.6	1950
656.8	1936
657.0	1928
657.2	1912
657.4	1899
657.6	1897
657.8	1894
658.0	1880
658.2	1865
658.4	1855
658.6	1851
658.8	1851
659.0	1847
659.2	1839
659.4	1829
659.6	1818
659.8	1811
660.0	1800
660.2	1790
660.4	1789
660.6	1781
660.8	1768
661.0	1757
661.2	1743
661.4	1731
661.6	1726
661.8	1716
662.0	1705
662.2	1698
662.4	1692
662.6	1687
662.8	1683
663.0	1675
663.2	1668
663.4	1656
663.6	1645
663.8	1642
664.0	1635
664.2	1633
664.4	1631
664.6	1619
664.8	1605
665.0	1598
665.2	1585
665.4	1579
665.6	1568
665.8	1561
666.0	1554
666.2	1551
666.4	1548
666.6	1544
666.8	1534
667.0	1528
667.2	1520
667.4	1514
667.6	1506
667.8	1495
668.0	1485
668.2	1477
668.4	1470
668.6	1464
668.8	1457
669.0	1447
669.2	1443
669.4	1436
669.6	1428
669.8	1426
670.0	1416
670.2	1405
670.4	1395
670.6	1386
670.8	1379
671.0	1375
671.2	1368
671.4	1360
671.6	1352
671.8	1347
672.0	1340
672.2	1330
672.4	1324
672.6	1313
672.8	1309
673.0	1303
673.2	1297
673.4	1287
673.6	1281
673.8	1272
674.0	1267
674.2	1265
674.4	1258
674.6	1250
674.8	1243
675.0	1237
675.2	1230
675.4	1228
675.6	1221
675.8	1218
676.0	1211
676.2	1203
676.4	1194
676.6	1189
676.8	1180
677.0	1172
677.2	1166
677.4	1154
677.6	1144
677.8	1139
678.0	1135
678.2	1128
678.4	1127
678.6	1124
678.8	1119
679.0	1112
679.2	1103
679.4	1093
679.6	1085
679.8	1082
680.0	1079
680.2	1075
680.4	1070
680.6	1068
680.8	1061
681.0	1051
681.2	1046
681.4	1039
681.6	1030
681.8	1027
682.0	1018
682.2	1007
682.4	1001
682.6	997.1
682.8	993.5
683.0	990.7
683.2	985.5
683.4	978.9
683.6	974.6
683.8	970.9
684.0	966.8
684.2	961.3
684.4	954.1
684.6	947.5
684.8	941.7
685.0	935.1
685.2	929.8
685.4	925.7
685.6	918.2
685.8	913.2
686.0	908.2
686.2	902.4
686.4	897.4
686.6	891.3
686.8	887.2
687.0	886.5
687.2	884.1
687.4	875.5
687.6	869.0
687.8	866.4
688.0	864.0
688.2	859.3
688.4	852.8
688.6	841.8
688.8	832.8
689.0	830.4
689.2	832.8
689.4	831.9
689.6	828.4
689.8	825.6
690.0	817.5
690.2	811.6
690.4	810.2
690.6	803.8
690.8	798.5
691.0	791.9
691.2	785.1
691.4	784.1
691.6	781.1
691.8	774.1
692.0	770.6
692.2	765.2
692.4	757.2
692.6	755.6
692.8	755.7
693.0	752.8
693.2	750.6
693.4	748.0
693.6	740.4
693.8	734.7
694.0	729.1
694.2	724.1
694.4	720.3
694.6	719.7
694.8	718.5
695.0	715.7
695.2	710.0
695.4	703.9
695.6	697.8
695.8	696.5
696.0	693.0
696.2	689.6
696.4	687.5
696.6	684.2
696.8	677.5
697.0	674.0
697.2	671.7
697.4	665.0
697.6	661.0
697.8	657.0
698.0	652.5
698.2	653.2
698.4	655.7
698.6	651.3
698.8	648.8
699.0	642.6
699.2	639.6
699.4	637.4
699.6	634.1
699.8	628.9
700.0	625.8
700.2	619.9
700.4	619.3
700.6	615.6
700.8	612.6
701.0	610.0
701.2	607.4
701.4	604.2
701.6	601.9
701.8	598.3
702.0	594.8
702.2	592.6
702.4	588.6
702.6	589.6
702.8	587.0
703.0	582.4
703.2	576.7
703.4	571.4
703.6	566.9
703.8	566.2
704.0	563.4
704.2	562.6
704.4	560.8
704.6	555.7
704.8	553.8
705.0	549.9
705.2	548.0
705.4	547.3
705.6	543.5
705.8	539.8
706.0	536.0
706.2	533.6
706.4	531.9
706.6	528.3
706.8	523.2
707.0	521.0
707.2	515.4
707.4	512.3
707.6	510.5
707.8	508.0
708.0	506.9
708.2	506.3
708.4	505.6
708.6	503.6
708.8	500.0
709.0	493.2
709.2	487.5
709.4	481.7
709.6	480.4
709.8	479.8
710.0	479.7
710.2	477.9
710.4	475.6
710.6	472.1
710.8	468.7
711.0	464.8
711.2	460.9
711.4	459.0
711.6	457.1
711.8	457.5
712.0	455.2
712.2	450.3
712.4	445.1
712.6	441.4
712.8	440.5
713.0	441.0
713.2	441.3
713.4	437.3
713.6	432.0
713.8	426.7
714.0	426.1
714.2	423.0
714.4	423.4
714.6	422.1
714.8	419.4
715.0	417.5
715.2	417.5
715.4	412.0
715.6	405.5
715.8	401.6
716.0	399.0
716.2	396.3
716.4	398.6
716.6	394.5
716.8	390.4
717.0	386.5
717.2	385.4
717.4	383.6
717.6	384.0
717.8	381.4
718.0	379.8
718.2	376.9
718.4	372.6
718.6	369.2
718.8	365.6
719.0	363.1
719.2	362.6
719.4	363.0
719.6	358.8
719.8	355.5
720.0	353.4
720.2	348.5
720.4	347.6
720.6	348.5
720.8	345.3
721.0	342.8
721.2	339.4
721.4	332.8
721.6	330.9
721.8	331.4
722.0	332.2
722.2	333.1
722.4	331.3
722.6	325.2
722.8	320.6
723.0	316.9
723.2	317.0
723.4	316.1
723.6	316.3
723.8	313.2
724.0	313.3
724.2	311.6
724.4	308.9
724.6	306.8
724.8	304.1
725.0	301.2
725.2	299.3
725.4	294.2
725.6	289.8
725.8	289.1
726.0	286.8
726.2	286.7
726.4	285.9
726.6	282.5
726.8	282.4
727.0	282.1
727.2	278.6
727.4	275.9
727.6	272.4
727.8	268.0
728.0	267.3
728.2	265.7
728.4	262.6
728.6	262.2
728.8	261.9
729.0	259.0
729.2	257.2
729.4	256.4
729.6	253.3
729.8	251.3
730.0	250.5
730.2	248.6
730.4	249.3
730.6	248.4
730.8	246.2
731.0	241.9
731.2	238.4
731.4	236.4
731.6	235.9
731.8	233.1
732.0	232.4
732.2	231.1
732.4	230.2
732.6	231.1
732.8	230.9
733.0	228.6
733.2	225.4
733.4	222.0
733.6	218.7
733.8	218.8
734.0	217.6
734.2	215.9
734.4	213.7
734.6	212.1
734.8	209.1
735.0	209.9
735.2	210.1
735.4	209.6
735.6	206.8
735.8	203.6
736.0	200.3
736.2	199.6
736.4	200.0
736.6	199.1
736.8	196.8
737.0	195.2
737.2	195.0
737.4	193.2
737.6	193.4
737.8	193.7
738.0	192.4
738.2	191.7
738.4	189.4
738.6	184.7
738.8	182.9
739.0	181.5
739.2	181.8
739.4	182.9
739.6	182.1
739.8	178.7
740.0	175.8
740.2	174.0
740.4	175.5
740.6	175.1
740.8	174.4
741.0	172.1
741.2	169.1
741.4	168.9
741.6	169.7
741.8	168.5
742.0	168.1
742.2	166.8
742.4	164.3
742.6	162.9
742.8	161.4
743.0	161.0
743.2	160.1
743.4	158.4
743.6	156.5
743.8	154.2
744.0	153.8
744.2	154.5
744.4	154.1
744.6	153.2
744.8	150.5
745.0	147.0
745.2	145.6
745.4	145.2
745.6	146.9
745.8	146.9
746.0	146.0
746.2	143.6
746.4	143.1
746.6	141.0
746.8	140.2
747.0	137.9
747.2	137.9
747.4	136.8
747.6	138.2
747.8	137.3
748.0	135.9
748.2	135.4
748.4	135.1
748.6	133.5
748.8	130.4
749.0	128.2
749.2	125.6
749.4	124.4
749.6	125.0
749.8	123.8
750.0	123.5
750.2	122.9
750.4	123.0
750.6	123.2
750.8	123.8
751.0	122.3
751.2	120.9
751.4	119.0
751.6	118.6
751.8	118.1
752.0	117.2
752.2	116.3
752.4	115.5
752.6	115.4
752.8	115.5
753.0	114.7
753.2	112.6
753.4	111.4
753.6	111.5
753.8	110.7
754.0	109.7
754.2	108.2
754.4	107.1
754.6	107.0
754.8	107.0
755.0	104.8
755.2	104.1
755.4	103.7
755.6	103.7
755.8	103.2
756.0	102.0
756.2	99.21
756.4	98.84
756.6	98.74
756.8	98.88
757.0	98.53
757.2	97.89
757.4	96.75
757.6	95.69
757.8	93.89
758.0	94.01
758.2	93.99
758.4	94.42
758.6	95.45
758.8	95.31
759.0	93.70
759.2	92.18
759.4	90.82
759.6	90.24
759.8	90.31
760.0	89.69
760.2	88.66
760.4	87.62
760.6	87.25
760.8	87.39
761.0	86.77
761.2	85.79
761.4	84.60
761.6	84.33
761.8	83.91
762.0	82.92
762.2	82.24
762.4	82.48
762.6	82.45
762.8	82.83
763.0	81.71
763.2	80.44
763.4	80.20
763.6	79.89
763.8	78.43
764.0	77.98
764.2	76.85
764.4	75.96
764.6	76.08
764.8	75.40
765.0	74.04
765.2	74.68
765.4	74.30
765.6	72.81
765.8	72.40
766.0	72.59
766.2	72.00
766.4	71.95
766.6	71.24
766.8	69.71
767.0	69.37
767.2	69.44
767.4	69.42
767.6	68.61
767.8	69.03
768.0	68.64
768.2	67.19
768.4	65.81
768.6	65.31
768.8	64.75
769.0	66.13
769.2	65.96
769.4	64.90
769.6	64.84
769.8	64.24
770.0	64.22
770.2	64.20
770.4	62.72
770.6	61.66
770.8	61.73
771.0	61.45
771.2	60.97
771.4	60.35
771.6	60.06
771.8	61.01
772.0	61.41
772.2	60.77
772.4	59.28
772.6	58.21
772.8	57.81
773.0	58.05
773.2	57.87
773.4	57.51
773.6	56.59
773.8	56.34
774.0	56.38
774.2	56.36
774.4	56.84
774.6	56.59
774.8	54.78
775.0	53.55
775.2	52.75
775.4	52.85
775.6	52.91
775.8	52.36
776.0	51.98
776.2	50.96
776.4	50.56
776.6	50.43
776.8	50.59
777.0	50.90
777.2	51.23
777.4	50.60
777.6	50.90
777.8	49.67
778.0	48.97
778.2	48.59
778.4	47.96
778.6	47.86
778.8	48.46
779.0	47.96
779.2	47.91
779.4	48.06
779.6	48.22
779.8	47.42
780.0	46.48
780.2	45.72
780.4	45.44
780.6	45.49
780.8	45.52
781.0	44.70
781.2	44.65
781.4	44.39
781.6	44.59
781.8	44.92
782.0	44.88
782.2	44.23
782.4	44.52
782.6	43.48
782.8	43.49
783.0	43.13
783.2	42.72
783.4	42.23
783.6	42.75
783.8	42.21
784.0	42.60
784.2	42.17
784.4	40.72
784.6	40.30
784.8	41.21
785.0	41.14
785.2	41.33
785.4	40.47
785.6	39.03
785.8	39.12
786.0	40.49
786.2	40.96
786.4	41.36
786.6	40.37
786.8	39.30
787.0	38.39
787.2	38.38
787.4	38.26
787.6	38.51
787.8	38.37
788.0	38.36
788.2	38.01
788.4	37.81
788.6	37.72
788.8	37.87
789.0	37.77
789.2	38.39
789.4	38.23
789.6	37.83
789.8	36.98
790.0	36.81
790.2	36.88
790.4	37.28
790.6	37.20
790.8	36.97
791.0	35.74
791.2	35.22
791.4	35.30
791.6	35.18
791.8	35.33
792.0	35.71
792.2	35.43
792.4	34.84
792.6	34.50
792.8	33.40
793.0	33.47
793.2	33.79
793.4	34.27
793.6	34.42
793.8	34.69
794.0	34.13
794.2	35.10
794.4	34.80
794.6	34.79
794.8	33.80
795.0	32.35
795.2	31.94
795.4	32.66
795.6	32.17
795.8	32.73
796.0	32.90
796.2	32.30
796.4	32.86
796.6	32.92
796.8	32.58
797.0	32.99
797.2	32.84
797.4	32.34
797.6	32.56
797.8	32.27
798.0	32.09
798.2	32.20
798.4	31.72
798.6	31.74
798.8	32.17
799.0	31.68
799.2	31.19
799.4	31.11
799.6	31.04
799.8	31.45
800.0	31.24
800.2	30.31
800.4	29.95
800.6	29.46
800.8	28.99
801.0	29.13
801.2	29.42
801.4	29.52
801.6	29.81
801.8	29.63
802.0	29.78
802.2	30.13
802.4	30.21
802.6	29.95
802.8	29.57
803.0	28.79
803.2	28.15
803.4	27.92
803.6	27.48
803.8	27.75
804.0	28.02
804.2	28.04
804.4	27.44
804.6	26.85
804.8	26.74
805.0	27.43
805.2	28.03
805.4	28.71
805.6	28.29
805.8	27.43
806.0	27.10
806.2	27.20
806.4	27.42
806.6	27.66
806.8	27.20
807.0	27.25
807.2	26.52
807.4	26.68
807.6	27.14
807.8	27.30
808.0	26.42
808.2	26.09
808.4	25.13
808.6	25.36
808.8	25.54
809.0	25.79
809.2	25.23
809.4	25.47
809.6	25.72
809.8	25.15
810.0	24.74
810.2	24.68
810.4	24.83
810.6	25.25
810.8	25.38
811.0	24.99
811.2	24.77
811.4	24.43
811.6	24.72
811.8	24.62
812.0	24.65
812.2	24.58
812.4	24.12
812.6	23.87
812.8	23.83
813.0	23.46
813.2	23.49
813.4	23.45
813.6	22.90
813.8	22.85
814.0	22.50
814.2	22.21
814.4	22.47
814.6	22.52
814.8	22.44
815.0	22.71
815.2	22.16
815.4	21.73
815.6	21.53
815.8	21.29
816.0	21.58
816.2	22.21
816.4	22.28
816.6	22.47
816.8	22.02
817.0	21.85
817.2	21.48
817.4	21.13
817.6	20.56
817.8	20.04
818.0	19.59
818.2	19.95
818.4	20.34
818.6	20.42
818.8	20.44
819.0	20.34
819.2	20.29
819.4	20.09
819.6	19.67
819.8	19.28
820.0	19.21
820.2	18.83
820.4	18.52
820.6	18.26
820.8	17.83
821.0	18.30
821.2	18.36
821.4	18.03
821.6	18.14
821.8	18.24
822.0	18.09
822.2	18.40
822.4	18.65
822.6	18.85
822.8	19.06
823.0	18.61
823.2	18.26
823.4	17.73
823.6	17.44
823.8	17.62
824.0	17.49
824.2	17.19
824.4	16.81
824.6	16.43
824.8	16.15
825.0	16.61
825.2	17.31
825.4	17.54
825.6	16.88
825.8	16.58
826.0	16.37
826.2	16.36
826.4	16.39
826.6	16.02
826.8	15.38
827.0	15.36
827.2	15.40
827.4	15.38
827.6	15.33
827.8	14.92
828.0	14.60
828.2	14.37
828.4	14.55
828.6	14.42
828.8	14.52
829.0	14.28
829.2	14.30
829.4	13.87
829.6	14.08
829.8	13.56
830.0	13.23
830.2	13.72
830.4	14.10
830.6	14.24
830.8	14.57
831.0	13.94
831.2	13.30
831.4	13.36
831.6	13.27
831.8	13.02
832.0	12.99
832.2	12.88
832.4	12.78
832.6	13.28
832.8	13.01
833.0	12.67
833.2	12.15
833.4	12.07
833.6	11.92
833.8	11.95
834.0	11.74
834.2	11.90
834.4	11.64
834.6	11.87
834.8	11.77
835.0	11.57
835.2	11.29
835.4	11.11
835.6	10.94
835.8	11.30
836.0	11.09
836.2	11.03
836.4	10.38
836.6	10.32
836.8	10.35
837.0	10.74
837.2	10.56
837.4	10.29
837.6	9.724
837.8	9.840
838.0	9.833
838.2	10.01
838.4	10.00
838.6	9.730
838.8	9.628
839.0	9.697
839.2	9.180
839.4	8.752
839.6	8.525
839.8	8.664
840.0	8.686
840.2	8.884
840.4	8.785
840.6	8.553
840.8	8.292
841.0	8.343
841.2	8.017
841.4	7.762
841.6	8.002
841.8	7.829
842.0	7.809
842.2	8.079
842.4	7.964
842.6	7.837
842.8	7.911
843.0	7.874
843.2	8.020
843.4	7.928
843.6	7.560
843.8	7.406
844.0	7.207
844.2	7.083
844.4	7.197
844.6	7.048
844.8	7.321
845.0	7.117
845.2	6.801
845.4	6.266
845.6	6.184
845.8	6.327
846.0	6.755
846.2	6.637
846.4	6.614
846.6	6.314
846.8	6.175
847.0	6.245
847.2	6.352
847.4	6.269
847.6	6.314
847.8	5.807
848.0	5.407
848.2	5.148
848.4	5.481
848.6	5.601
848.8	5.901
849.0	5.770
849.2	5.539
849.4	5.429
849.6	5.378
849.8	5.262
850.0	5.277
850.2	5.071
850.4	5.034
850.6	5.211
850.8	5.212
851.0	5.334
851.2	5.113
851.4	5.014
851.6	4.947
851.8	5.029
852.0	4.980
852.2	5.008
852.4	4.587
852.6	4.674
852.8	4.574
853.0	4.510
853.2	4.350
853.4	4.082
853.6	3.888
853.8	3.994
854.0	3.888
854.2	3.932
854.4	4.153
854.6	4.216
854.8	4.478
855.0	4.634
855.2	4.357
855.4	4.169
855.6	3.851
855.8	3.745
856.0	3.707
856.2	3.786
856.4	3.844
856.6	4.133
856.8	4.184
857.0	3.993
857.2	3.946
857.4	3.990
857.6	3.887
857.8	4.052
858.0	4.034
858.2	3.650
858.4	3.543
858.6	3.537
858.8	3.488
859.0	3.588
859.2	3.652
859.4	3.766
859.6	3.975
859.8	4.091
860.0	4.083
860.2	3.963
860.4	3.697
860.6	3.642
860.8	3.712
861.0	3.568
861.2	3.325
861.4	3.428
861.6	3.448
861.8	3.511
862.0	3.536
862.2	3.367
862.4	3.296
862.6	3.297
862.8	3.349
863.0	3.361
863.2	3.419
863.4	3.405
863.6	3.546
863.8	3.405
864.0	3.354
864.2	3.241
864.4	3.216
864.6	3.051
864.8	3.058
865.0	3.184
865.2	3.220
865.4	3.201
865.6	3.276
865.8	3.076
866.0	3.047
866.2	3.280
866.4	3.255
866.6	3.174
866.8	3.219
867.0	3.040
867.2	3.095
867.4	3.114
867.6	3.046
867.8	2.979
868.0	2.997
868.2	3.074
868.4	3.190
868.6	3.008
868.8	2.998
869.0	3.058
869.2	3.149
869.4	3.508
869.6	3.566
869.8	3.395
870.0	3.093
870.2	2.878
870.4	2.957
870.6	3.214
870.8	3.248
871.0	3.404
871.2	3.184
871.4	2.894
871.6	2.827
871.8	2.837
872.0	2.660
872.2	2.891
872.4	2.805
872.6	2.724
872.8	2.815
873.0	2.793
873.2	2.706
873.4	2.796
873.6	2.920
873.8	3.068
874.0	3.004
874.2	2.856
874.4	2.655
874.6	2.548
874.8	2.906
875.0	3.167
875.2	3.192
875.4	3.124
875.6	2.747
875.8	2.561
876.0	2.678
876.2	2.901
876.4	3.076
876.6	3.274
876.8	3.144
877.0	3.052
877.2	3.092
877.4	3.002
877.6	2.862
877.8	2.964
878.0	2.829
878.2	2.560
878.4	2.416
878.6	2.363
878.8	2.423
879.0	2.591
879.2	2.984
879.4	2.951
879.6	2.966
879.8	3.018
880.0	2.940
880.2	2.710
880.4	2.658
880.6	2.706
880.8	2.713
881.0	2.690
881.2	2.747
881.4	2.709
881.6	2.554
881.8	2.814
882.0	2.945
882.2	2.964
882.4	2.930
882.6	2.776
882.8	2.426
883.0	2.551
883.2	2.686
883.4	2.837
883.6	2.793
883.8	2.688
884.0	2.573
884.2	2.666
884.4	2.591
884.6	2.624
884.8	2.482
885.0	2.344
885.2	2.445
885.4	2.571
885.6	2.700
885.8	2.959
886.0	2.837
886.2	2.736
886.4	2.682
886.6	2.641
886.8	2.643
887.0	2.703
887.2	2.616
887.4	2.709
887.6	2.745
887.8	2.753
888.0	2.835
888.2	2.827
888.4	2.911
888.6	2.931
888.8	2.901
889.0	2.634
889.2	2.715
889.4	2.626
889.6	2.578
889.8	2.645
890.0	2.793
890.2	2.781
890.4	2.809
890.6	2.599
890.8	2.432
891.0	2.561
891.2	2.881
891.4	3.183
891.6	3.195
891.8	3.005
892.0	2.922
892.2	2.913
892.4	2.904
892.6	2.949
892.8	2.935
893.0	2.865
893.2	2.940
893.4	2.965
893.6	2.959
893.8	2.747
894.0	2.526
894.2	2.604
894.4	2.733
894.6	2.951
894.8	3.021
895.0	2.927
895.2	2.812
895.4	2.712
895.6	2.841
895.8	2.801
896.0	2.647
896.2	2.763
896.4	2.937
896.6	2.931
896.8	3.065
897.0	2.758
897.2	2.560
897.4	2.479
897.6	2.580
897.8	2.619
898.0	2.609
898.2	2.610
898.4	2.786
898.6	2.796
898.8	2.773
899.0	2.833
899.2	3.010
899.4	3.145
899.6	3.311
899.8	3.344
900.0	3.157

