Sample:	'20211010A(EM)
File name:	r-NI-c-dots 600S2-.FDS
Run date:	'16:32:23, 03/22/2023
Operator:	Administrator
Comment:	'

Instrument
Model:	F-4700 FL Spectrophotometer
Serial number:	2019-001
ROM Version:	5J24010 00

Instrument parameters
Measurement type:	Wavelength scan
Scan mode:	Emission
Data mode:	Fluorescence
EX WL:	480.0 nm
EM  Start WL:	500.0 nm
EM  End WL:	900.0 nm
Scan speed:	1200 nm/min
Delay:	0.0 s
EX Slit:	10.0 nm
EM Slit:	10.0 nm
PMT Voltage:	600 V
Response:	0.002 s
Corrected spectra:	Off
Shutter control:	On

Processing performed
Savitsky-Golay smoothed
Smoothing order:	3
Number of points:	7
Number of times:	1

Peak integration
Integration method:	Rectangular
Sensitivity:	1
Threshold:	1.000

Peaks
No.	Start(nm)	Apex(nm)	End(nm)	Height(Data)	Valley(nm)	Valley(Data)
1	500.0	611.0	611.6	4288	611.6	4272
2	611.6	612.8	614.2	4295	614.2	4270
3	614.2	615.2	787.2	4289	787.2	47.86
4	787.2	787.6	792.8	49.90	792.8	43.20
5	792.8	793.4	798.4	45.26	798.4	39.53
6	798.4	798.8	806.2	40.88	806.2	34.21
7	806.2	806.8	807.8	35.85	807.8	32.68
8	807.8	809.2	812.8	33.71	812.8	28.57
9	812.8	813.6	822.2	30.57	822.2	21.68
10	822.2	823.4	834.8	23.30	834.8	13.32
11	834.8	835.2	900.0	14.36	900.0	2.856

Data points
nm	Data
500.0	493.8
500.2	500.5
500.4	506.1
500.6	511.0
500.8	515.7
501.0	520.8
501.2	527.2
501.4	532.2
501.6	538.7
501.8	546.0
502.0	556.9
502.2	564.4
502.4	571.6
502.6	576.8
502.8	584.2
503.0	593.8
503.2	602.4
503.4	608.5
503.6	613.2
503.8	618.4
504.0	623.6
504.2	630.6
504.4	637.0
504.6	646.4
504.8	657.1
505.0	664.3
505.2	669.6
505.4	679.0
505.6	688.3
505.8	695.8
506.0	701.8
506.2	705.4
506.4	712.8
506.6	721.1
506.8	731.7
507.0	741.2
507.2	746.8
507.4	754.9
507.6	767.1
507.8	773.0
508.0	781.7
508.2	787.2
508.4	794.0
508.6	803.2
508.8	811.9
509.0	822.1
509.2	834.2
509.4	837.1
509.6	845.4
509.8	857.5
510.0	866.4
510.2	879.6
510.4	890.7
510.6	894.9
510.8	899.3
511.0	911.7
511.2	921.7
511.4	927.3
511.6	934.2
511.8	943.4
512.0	950.1
512.2	963.5
512.4	972.9
512.6	980.9
512.8	990.1
513.0	997.5
513.2	1006
513.4	1016
513.6	1020
513.8	1030
514.0	1039
514.2	1048
514.4	1059
514.6	1066
514.8	1074
515.0	1084
515.2	1088
515.4	1098
515.6	1111
515.8	1124
516.0	1138
516.2	1149
516.4	1155
516.6	1161
516.8	1171
517.0	1179
517.2	1190
517.4	1198
517.6	1205
517.8	1210
518.0	1218
518.2	1225
518.4	1240
518.6	1254
518.8	1264
519.0	1274
519.2	1283
519.4	1297
519.6	1309
519.8	1320
520.0	1331
520.2	1335
520.4	1341
520.6	1354
520.8	1361
521.0	1367
521.2	1378
521.4	1389
521.6	1400
521.8	1413
522.0	1418
522.2	1416
522.4	1421
522.6	1430
522.8	1442
523.0	1457
523.2	1473
523.4	1480
523.6	1490
523.8	1499
524.0	1507
524.2	1518
524.4	1529
524.6	1541
524.8	1550
525.0	1562
525.2	1568
525.4	1577
525.6	1584
525.8	1594
526.0	1600
526.2	1607
526.4	1613
526.6	1624
526.8	1636
527.0	1645
527.2	1653
527.4	1659
527.6	1667
527.8	1676
528.0	1680
528.2	1687
528.4	1697
528.6	1706
528.8	1719
529.0	1727
529.2	1731
529.4	1732
529.6	1737
529.8	1744
530.0	1752
530.2	1765
530.4	1776
530.6	1779
530.8	1786
531.0	1794
531.2	1801
531.4	1813
531.6	1826
531.8	1833
532.0	1841
532.2	1844
532.4	1850
532.6	1859
532.8	1874
533.0	1888
533.2	1895
533.4	1893
533.6	1895
533.8	1901
534.0	1918
534.2	1931
534.4	1934
534.6	1933
534.8	1932
535.0	1934
535.2	1947
535.4	1961
535.6	1971
535.8	1974
536.0	1976
536.2	1979
536.4	1986
536.6	1993
536.8	2003
537.0	2013
537.2	2021
537.4	2027
537.6	2034
537.8	2034
538.0	2033
538.2	2042
538.4	2047
538.6	2053
538.8	2061
539.0	2066
539.2	2068
539.4	2077
539.6	2084
539.8	2099
540.0	2109
540.2	2116
540.4	2124
540.6	2129
540.8	2128
541.0	2128
541.2	2129
541.4	2133
541.6	2143
541.8	2151
542.0	2159
542.2	2165
542.4	2175
542.6	2182
542.8	2184
543.0	2185
543.2	2190
543.4	2192
543.6	2200
543.8	2207
544.0	2209
544.2	2209
544.4	2208
544.6	2211
544.8	2229
545.0	2238
545.2	2247
545.4	2254
545.6	2256
545.8	2256
546.0	2261
546.2	2256
546.4	2262
546.6	2272
546.8	2275
547.0	2278
547.2	2281
547.4	2281
547.6	2291
547.8	2294
548.0	2293
548.2	2299
548.4	2303
548.6	2306
548.8	2316
549.0	2317
549.2	2320
549.4	2325
549.6	2327
549.8	2324
550.0	2335
550.2	2341
550.4	2347
550.6	2350
550.8	2349
551.0	2348
551.2	2359
551.4	2363
551.6	2366
551.8	2370
552.0	2367
552.2	2376
552.4	2386
552.6	2390
552.8	2397
553.0	2402
553.2	2400
553.4	2407
553.6	2412
553.8	2415
554.0	2425
554.2	2432
554.4	2437
554.6	2436
554.8	2434
555.0	2432
555.2	2444
555.4	2445
555.6	2457
555.8	2462
556.0	2464
556.2	2468
556.4	2473
556.6	2465
556.8	2474
557.0	2483
557.2	2485
557.4	2492
557.6	2492
557.8	2494
558.0	2499
558.2	2505
558.4	2507
558.6	2515
558.8	2521
559.0	2534
559.2	2534
559.4	2534
559.6	2534
559.8	2543
560.0	2545
560.2	2554
560.4	2550
560.6	2553
560.8	2558
561.0	2564
561.2	2564
561.4	2572
561.6	2573
561.8	2576
562.0	2581
562.2	2586
562.4	2593
562.6	2599
562.8	2605
563.0	2609
563.2	2613
563.4	2611
563.6	2618
563.8	2620
564.0	2630
564.2	2646
564.4	2654
564.6	2651
564.8	2648
565.0	2650
565.2	2660
565.4	2675
565.6	2680
565.8	2683
566.0	2681
566.2	2685
566.4	2695
566.6	2702
566.8	2703
567.0	2702
567.2	2706
567.4	2715
567.6	2724
567.8	2736
568.0	2739
568.2	2741
568.4	2747
568.6	2748
568.8	2750
569.0	2760
569.2	2764
569.4	2779
569.6	2789
569.8	2794
570.0	2801
570.2	2810
570.4	2808
570.6	2808
570.8	2809
571.0	2813
571.2	2818
571.4	2829
571.6	2835
571.8	2845
572.0	2857
572.2	2868
572.4	2875
572.6	2881
572.8	2878
573.0	2881
573.2	2883
573.4	2893
573.6	2905
573.8	2913
574.0	2913
574.2	2919
574.4	2925
574.6	2931
574.8	2942
575.0	2943
575.2	2952
575.4	2962
575.6	2970
575.8	2973
576.0	2978
576.2	2982
576.4	2993
576.6	3007
576.8	3016
577.0	3022
577.2	3026
577.4	3031
577.6	3031
577.8	3036
578.0	3048
578.2	3058
578.4	3073
578.6	3082
578.8	3084
579.0	3088
579.2	3101
579.4	3109
579.6	3121
579.8	3134
580.0	3141
580.2	3146
580.4	3155
580.6	3163
580.8	3171
581.0	3187
581.2	3193
581.4	3195
581.6	3196
581.8	3202
582.0	3209
582.2	3223
582.4	3233
582.6	3250
582.8	3263
583.0	3274
583.2	3281
583.4	3284
583.6	3282
583.8	3293
584.0	3299
584.2	3306
584.4	3317
584.6	3330
584.8	3341
585.0	3351
585.2	3353
585.4	3362
585.6	3369
585.8	3382
586.0	3395
586.2	3410
586.4	3417
586.6	3429
586.8	3432
587.0	3431
587.2	3434
587.4	3446
587.6	3460
587.8	3475
588.0	3490
588.2	3488
588.4	3493
588.6	3497
588.8	3510
589.0	3529
589.2	3541
589.4	3552
589.6	3562
589.8	3569
590.0	3571
590.2	3582
590.4	3587
590.6	3594
590.8	3607
591.0	3625
591.2	3638
591.4	3663
591.6	3668
591.8	3668
592.0	3673
592.2	3678
592.4	3691
592.6	3701
592.8	3707
593.0	3723
593.2	3732
593.4	3735
593.6	3742
593.8	3748
594.0	3756
594.2	3769
594.4	3784
594.6	3791
594.8	3797
595.0	3809
595.2	3811
595.4	3819
595.6	3827
595.8	3830
596.0	3828
596.2	3833
596.4	3849
596.6	3866
596.8	3868
597.0	3879
597.2	3882
597.4	3887
597.6	3898
597.8	3908
598.0	3919
598.2	3938
598.4	3950
598.6	3951
598.8	3952
599.0	3959
599.2	3967
599.4	3976
599.6	3983
599.8	3987
600.0	3998
600.2	4014
600.4	4022
600.6	4029
600.8	4029
601.0	4026
601.2	4029
601.4	4038
601.6	4054
601.8	4056
602.0	4065
602.2	4073
602.4	4084
602.6	4102
602.8	4116
603.0	4113
603.2	4114
603.4	4118
603.6	4120
603.8	4129
604.0	4133
604.2	4133
604.4	4128
604.6	4133
604.8	4139
605.0	4152
605.2	4164
605.4	4172
605.6	4171
605.8	4175
606.0	4180
606.2	4186
606.4	4195
606.6	4203
606.8	4194
607.0	4201
607.2	4214
607.4	4219
607.6	4229
607.8	4229
608.0	4218
608.2	4217
608.4	4224
608.6	4223
608.8	4226
609.0	4231
609.2	4240
609.4	4244
609.6	4250
609.8	4247
610.0	4246
610.2	4245
610.4	4251
610.6	4264
610.8	4279
611.0	4288
611.2	4287
611.4	4277
611.6	4272
611.8	4277
612.0	4276
612.2	4279
612.4	4284
612.6	4287
612.8	4295
613.0	4290
613.2	4281
613.4	4276
613.6	4275
613.8	4273
614.0	4281
614.2	4270
614.4	4276
614.6	4274
614.8	4281
615.0	4284
615.2	4289
615.4	4285
615.6	4280
615.8	4272
616.0	4275
616.2	4278
616.4	4281
616.6	4281
616.8	4268
617.0	4267
617.2	4260
617.4	4258
617.6	4258
617.8	4262
618.0	4253
618.2	4244
618.4	4240
618.6	4241
618.8	4244
619.0	4249
619.2	4241
619.4	4234
619.6	4236
619.8	4233
620.0	4241
620.2	4245
620.4	4234
620.6	4234
620.8	4230
621.0	4223
621.2	4220
621.4	4208
621.6	4194
621.8	4191
622.0	4183
622.2	4183
622.4	4171
622.6	4166
622.8	4171
623.0	4171
623.2	4159
623.4	4161
623.6	4163
623.8	4163
624.0	4164
624.2	4157
624.4	4139
624.6	4125
624.8	4115
625.0	4106
625.2	4105
625.4	4107
625.6	4107
625.8	4098
626.0	4086
626.2	4069
626.4	4066
626.6	4059
626.8	4065
627.0	4058
627.2	4050
627.4	4029
627.6	4031
627.8	4030
628.0	4030
628.2	4023
628.4	4008
628.6	3991
628.8	3984
629.0	3978
629.2	3966
629.4	3962
629.6	3949
629.8	3946
630.0	3937
630.2	3929
630.4	3916
630.6	3908
630.8	3891
631.0	3886
631.2	3871
631.4	3865
631.6	3857
631.8	3849
632.0	3844
632.2	3847
632.4	3844
632.6	3842
632.8	3833
633.0	3817
633.2	3809
633.4	3802
633.6	3791
633.8	3777
634.0	3769
634.2	3755
634.4	3746
634.6	3740
634.8	3729
635.0	3716
635.2	3708
635.4	3698
635.6	3681
635.8	3672
636.0	3659
636.2	3651
636.4	3642
636.6	3634
636.8	3617
637.0	3610
637.2	3598
637.4	3593
637.6	3597
637.8	3589
638.0	3577
638.2	3562
638.4	3550
638.6	3542
638.8	3535
639.0	3523
639.2	3508
639.4	3492
639.6	3481
639.8	3472
640.0	3456
640.2	3446
640.4	3434
640.6	3418
640.8	3408
641.0	3398
641.2	3394
641.4	3381
641.6	3379
641.8	3373
642.0	3362
642.2	3352
642.4	3339
642.6	3318
642.8	3307
643.0	3302
643.2	3282
643.4	3270
643.6	3259
643.8	3249
644.0	3233
644.2	3229
644.4	3219
644.6	3209
644.8	3207
645.0	3192
645.2	3170
645.4	3155
645.6	3137
645.8	3126
646.0	3123
646.2	3112
646.4	3105
646.6	3106
646.8	3094
647.0	3087
647.2	3076
647.4	3056
647.6	3034
647.8	3020
648.0	3002
648.2	2991
648.4	2989
648.6	2983
648.8	2971
649.0	2960
649.2	2947
649.4	2939
649.6	2933
649.8	2921
650.0	2909
650.2	2898
650.4	2878
650.6	2867
650.8	2850
651.0	2838
651.2	2829
651.4	2828
651.6	2815
651.8	2803
652.0	2785
652.2	2775
652.4	2763
652.6	2752
652.8	2740
653.0	2728
653.2	2716
653.4	2697
653.6	2682
653.8	2666
654.0	2664
654.2	2666
654.4	2661
654.6	2646
654.8	2624
655.0	2607
655.2	2601
655.4	2590
655.6	2577
655.8	2569
656.0	2551
656.2	2554
656.4	2547
656.6	2531
656.8	2511
657.0	2496
657.2	2484
657.4	2484
657.6	2476
657.8	2470
658.0	2458
658.2	2445
658.4	2432
658.6	2421
658.8	2409
659.0	2401
659.2	2388
659.4	2368
659.6	2356
659.8	2345
660.0	2331
660.2	2330
660.4	2325
660.6	2313
660.8	2307
661.0	2289
661.2	2268
661.4	2256
661.6	2243
661.8	2233
662.0	2229
662.2	2223
662.4	2214
662.6	2202
662.8	2195
663.0	2188
663.2	2181
663.4	2172
663.6	2157
663.8	2139
664.0	2126
664.2	2115
664.4	2107
664.6	2094
664.8	2082
665.0	2068
665.2	2061
665.4	2062
665.6	2056
665.8	2043
666.0	2026
666.2	2013
666.4	2005
666.6	2004
666.8	1998
667.0	1989
667.2	1977
667.4	1964
667.6	1950
667.8	1942
668.0	1939
668.2	1928
668.4	1914
668.6	1894
668.8	1883
669.0	1874
669.2	1878
669.4	1872
669.6	1867
669.8	1859
670.0	1849
670.2	1836
670.4	1824
670.6	1807
670.8	1798
671.0	1790
671.2	1780
671.4	1772
671.6	1766
671.8	1754
672.0	1745
672.2	1733
672.4	1716
672.6	1709
672.8	1707
673.0	1697
673.2	1688
673.4	1677
673.6	1664
673.8	1654
674.0	1649
674.2	1645
674.4	1637
674.6	1630
674.8	1620
675.0	1607
675.2	1598
675.4	1591
675.6	1582
675.8	1580
676.0	1576
676.2	1568
676.4	1558
676.6	1549
676.8	1536
677.0	1525
677.2	1519
677.4	1511
677.6	1504
677.8	1499
678.0	1487
678.2	1471
678.4	1464
678.6	1457
678.8	1453
679.0	1446
679.2	1440
679.4	1428
679.6	1418
679.8	1410
680.0	1404
680.2	1396
680.4	1397
680.6	1387
680.8	1385
681.0	1374
681.2	1371
681.4	1361
681.6	1354
681.8	1345
682.0	1343
682.2	1333
682.4	1330
682.6	1319
682.8	1302
683.0	1292
683.2	1282
683.4	1273
683.6	1265
683.8	1260
684.0	1252
684.2	1247
684.4	1244
684.6	1241
684.8	1233
685.0	1226
685.2	1210
685.4	1197
685.6	1191
685.8	1191
686.0	1191
686.2	1186
686.4	1176
686.6	1171
686.8	1161
687.0	1156
687.2	1154
687.4	1148
687.6	1140
687.8	1133
688.0	1122
688.2	1112
688.4	1107
688.6	1105
688.8	1102
689.0	1096
689.2	1091
689.4	1086
689.6	1080
689.8	1071
690.0	1060
690.2	1053
690.4	1051
690.6	1049
690.8	1045
691.0	1039
691.2	1033
691.4	1027
691.6	1020
691.8	1014
692.0	1004
692.2	1001
692.4	1001
692.6	991.3
692.8	986.7
693.0	982.6
693.2	974.0
693.4	970.4
693.6	969.1
693.8	962.5
694.0	960.9
694.2	953.9
694.4	948.9
694.6	945.0
694.8	941.7
695.0	935.7
695.2	927.9
695.4	921.5
695.6	920.6
695.8	917.9
696.0	913.3
696.2	904.1
696.4	895.9
696.6	884.9
696.8	882.6
697.0	879.9
697.2	876.7
697.4	871.5
697.6	869.6
697.8	862.3
698.0	859.7
698.2	855.2
698.4	854.1
698.6	848.8
698.8	842.9
699.0	839.5
699.2	835.4
699.4	831.1
699.6	834.3
699.8	832.1
700.0	825.3
700.2	820.5
700.4	814.2
700.6	805.1
700.8	800.3
701.0	795.8
701.2	793.4
701.4	791.9
701.6	787.9
701.8	785.3
702.0	780.4
702.2	774.8
702.4	772.7
702.6	766.6
702.8	763.3
703.0	759.3
703.2	756.3
703.4	756.2
703.6	753.8
703.8	753.1
704.0	751.1
704.2	743.3
704.4	737.2
704.6	731.5
704.8	723.4
705.0	720.4
705.2	716.8
705.4	712.7
705.6	710.9
705.8	708.0
706.0	703.9
706.2	698.4
706.4	697.8
706.6	694.7
706.8	692.0
707.0	685.7
707.2	681.6
707.4	674.4
707.6	673.0
707.8	671.1
708.0	666.6
708.2	661.2
708.4	656.8
708.6	651.0
708.8	648.7
709.0	646.9
709.2	644.2
709.4	640.2
709.6	637.3
709.8	632.1
710.0	629.0
710.2	626.5
710.4	625.4
710.6	620.5
710.8	618.3
711.0	614.1
711.2	608.0
711.4	606.0
711.6	603.9
711.8	600.9
712.0	597.8
712.2	595.8
712.4	587.2
712.6	584.1
712.8	578.6
713.0	575.3
713.2	573.1
713.4	572.7
713.6	566.1
713.8	563.2
714.0	554.5
714.2	550.7
714.4	548.3
714.6	550.1
714.8	548.2
715.0	548.7
715.2	541.7
715.4	537.4
715.6	533.3
715.8	531.6
716.0	529.2
716.2	526.2
716.4	520.3
716.6	517.4
716.8	515.8
717.0	514.2
717.2	511.3
717.4	507.4
717.6	503.4
717.8	502.1
718.0	499.3
718.2	496.4
718.4	493.1
718.6	484.8
718.8	480.0
719.0	475.6
719.2	471.2
719.4	470.6
719.6	470.4
719.8	467.9
720.0	468.7
720.2	466.2
720.4	460.7
720.6	456.3
720.8	452.0
721.0	449.2
721.2	446.8
721.4	445.5
721.6	441.4
721.8	439.2
722.0	438.5
722.2	433.9
722.4	429.7
722.6	427.6
722.8	425.0
723.0	423.0
723.2	421.6
723.4	417.0
723.6	410.6
723.8	406.2
724.0	404.4
724.2	401.3
724.4	399.3
724.6	397.5
724.8	395.4
725.0	394.5
725.2	392.7
725.4	390.3
725.6	386.5
725.8	382.7
726.0	380.0
726.2	377.3
726.4	373.9
726.6	371.9
726.8	371.9
727.0	369.6
727.2	365.6
727.4	360.7
727.6	357.0
727.8	352.5
728.0	351.2
728.2	349.1
728.4	347.4
728.6	346.2
728.8	345.6
729.0	340.4
729.2	339.0
729.4	335.9
729.6	334.6
729.8	334.0
730.0	332.1
730.2	330.2
730.4	328.9
730.6	325.8
730.8	323.6
731.0	321.3
731.2	318.3
731.4	316.8
731.6	314.6
731.8	313.9
732.0	310.0
732.2	304.5
732.4	300.4
732.6	297.5
732.8	296.1
733.0	295.9
733.2	293.4
733.4	292.2
733.6	292.4
733.8	291.6
734.0	288.4
734.2	285.2
734.4	281.8
734.6	279.8
734.8	278.2
735.0	276.7
735.2	276.2
735.4	275.0
735.6	272.1
735.8	270.6
736.0	266.7
736.2	263.9
736.4	263.8
736.6	264.2
736.8	264.4
737.0	263.0
737.2	258.5
737.4	254.6
737.6	251.6
737.8	249.8
738.0	247.7
738.2	243.8
738.4	241.8
738.6	239.7
738.8	240.0
739.0	240.6
739.2	241.7
739.4	242.3
739.6	241.3
739.8	236.7
740.0	233.3
740.2	228.7
740.4	227.5
740.6	226.6
740.8	225.8
741.0	223.9
741.2	222.6
741.4	220.4
741.6	220.3
741.8	219.5
742.0	218.0
742.2	216.4
742.4	214.8
742.6	212.4
742.8	212.0
743.0	209.4
743.2	208.0
743.4	208.5
743.6	207.0
743.8	206.6
744.0	205.3
744.2	203.7
744.4	203.0
744.6	201.5
744.8	198.4
745.0	197.4
745.2	193.7
745.4	191.5
745.6	189.7
745.8	187.8
746.0	189.0
746.2	190.2
746.4	189.2
746.6	187.8
746.8	187.3
747.0	186.5
747.2	186.4
747.4	183.3
747.6	178.5
747.8	177.7
748.0	176.7
748.2	175.8
748.4	175.0
748.6	173.7
748.8	172.6
749.0	173.6
749.2	173.0
749.4	170.6
749.6	167.8
749.8	165.7
750.0	163.3
750.2	161.5
750.4	161.9
750.6	160.3
750.8	158.7
751.0	157.2
751.2	155.0
751.4	155.5
751.6	156.3
751.8	154.1
752.0	153.1
752.2	151.7
752.4	149.6
752.6	149.6
752.8	149.3
753.0	148.0
753.2	148.1
753.4	147.3
753.6	146.1
753.8	144.5
754.0	144.0
754.2	143.5
754.4	141.6
754.6	141.6
754.8	140.6
755.0	140.4
755.2	138.7
755.4	136.8
755.6	133.0
755.8	133.1
756.0	132.7
756.2	133.7
756.4	131.6
756.6	130.6
756.8	129.9
757.0	130.8
757.2	132.1
757.4	131.1
757.6	128.9
757.8	127.6
758.0	126.8
758.2	126.0
758.4	125.1
758.6	122.3
758.8	120.6
759.0	119.5
759.2	118.9
759.4	119.3
759.6	119.5
759.8	117.2
760.0	115.6
760.2	114.5
760.4	113.3
760.6	113.8
760.8	114.3
761.0	112.7
761.2	112.8
761.4	112.8
761.6	111.2
761.8	110.0
762.0	109.8
762.2	107.3
762.4	106.2
762.6	105.2
762.8	103.9
763.0	103.9
763.2	104.5
763.4	103.6
763.6	104.8
763.8	104.3
764.0	102.2
764.2	100.8
764.4	98.75
764.6	98.51
764.8	100.0
765.0	100.2
765.2	98.90
765.4	98.00
765.6	96.87
765.8	96.36
766.0	95.06
766.2	94.21
766.4	93.52
766.6	93.27
766.8	92.11
767.0	90.43
767.2	89.55
767.4	89.45
767.6	89.86
767.8	90.26
768.0	90.67
768.2	89.57
768.4	89.52
768.6	88.17
768.8	86.30
769.0	85.16
769.2	85.47
769.4	85.27
769.6	84.80
769.8	82.86
770.0	81.81
770.2	81.76
770.4	81.16
770.6	81.76
770.8	82.38
771.0	80.83
771.2	80.98
771.4	80.17
771.6	77.98
771.8	77.33
772.0	76.93
772.2	76.05
772.4	76.44
772.6	76.23
772.8	75.54
773.0	75.13
773.2	73.89
773.4	73.72
773.6	73.79
773.8	74.76
774.0	74.47
774.2	73.55
774.4	72.92
774.6	72.33
774.8	71.74
775.0	70.90
775.2	69.67
775.4	68.96
775.6	69.53
775.8	69.42
776.0	68.83
776.2	67.45
776.4	67.84
776.6	67.84
776.8	68.14
777.0	68.12
777.2	66.57
777.4	64.19
777.6	63.28
777.8	61.83
778.0	61.97
778.2	63.23
778.4	62.88
778.6	61.99
778.8	61.97
779.0	60.79
779.2	60.57
779.4	60.67
779.6	60.03
779.8	60.42
780.0	61.04
780.2	60.04
780.4	59.60
780.6	59.52
780.8	58.20
781.0	58.15
781.2	59.12
781.4	58.89
781.6	58.35
781.8	58.14
782.0	55.85
782.2	54.52
782.4	56.05
782.6	56.20
782.8	56.06
783.0	56.38
783.2	55.73
783.4	55.16
783.6	55.36
783.8	54.17
784.0	53.42
784.2	53.82
784.4	54.13
784.6	54.79
784.8	53.86
785.0	52.32
785.2	51.79
785.4	51.11
785.6	51.03
785.8	52.35
786.0	52.41
786.2	52.47
786.4	52.05
786.6	50.28
786.8	48.36
787.0	48.02
787.2	47.86
787.4	48.85
787.6	49.90
787.8	49.47
788.0	49.11
788.2	49.64
788.4	48.71
788.6	49.42
788.8	49.71
789.0	48.66
789.2	48.95
789.4	48.82
789.6	47.58
789.8	48.05
790.0	47.72
790.2	47.62
790.4	48.19
790.6	48.15
790.8	47.00
791.0	46.92
791.2	45.14
791.4	44.61
791.6	44.07
791.8	44.64
792.0	44.59
792.2	45.16
792.4	44.02
792.6	43.84
792.8	43.20
793.0	44.77
793.2	45.22
793.4	45.26
793.6	43.40
793.8	43.35
794.0	43.09
794.2	43.72
794.4	43.86
794.6	43.84
794.8	42.77
795.0	43.87
795.2	43.94
795.4	43.43
795.6	43.61
795.8	43.32
796.0	43.28
796.2	42.78
796.4	41.41
796.6	40.61
796.8	40.02
797.0	40.31
797.2	41.17
797.4	41.46
797.6	41.21
797.8	40.66
798.0	39.92
798.2	39.98
798.4	39.53
798.6	40.29
798.8	40.88
799.0	40.49
799.2	40.48
799.4	40.55
799.6	39.94
799.8	40.07
800.0	39.57
800.2	39.96
800.4	40.36
800.6	40.79
800.8	40.47
801.0	39.20
801.2	37.62
801.4	37.95
801.6	37.62
801.8	38.15
802.0	38.26
802.2	37.34
802.4	37.29
802.6	37.49
802.8	36.57
803.0	37.05
803.2	37.06
803.4	36.37
803.6	37.01
803.8	36.62
804.0	36.36
804.2	36.46
804.4	36.34
804.6	36.55
804.8	36.26
805.0	35.11
805.2	34.71
805.4	34.31
805.6	34.42
805.8	34.79
806.0	34.21
806.2	34.21
806.4	34.82
806.6	35.31
806.8	35.85
807.0	35.74
807.2	34.33
807.4	33.58
807.6	32.94
807.8	32.68
808.0	33.11
808.2	33.71
808.4	33.41
808.6	33.47
808.8	33.29
809.0	33.62
809.2	33.71
809.4	33.16
809.6	32.98
809.8	32.57
810.0	32.20
810.2	31.72
810.4	31.02
810.6	30.67
810.8	30.75
811.0	31.43
811.2	31.50
811.4	30.94
811.6	30.59
811.8	31.32
812.0	30.93
812.2	30.17
812.4	29.71
812.6	28.93
812.8	28.57
813.0	29.65
813.2	30.45
813.4	30.48
813.6	30.57
813.8	30.14
814.0	29.14
814.2	28.58
814.4	28.25
814.6	28.25
814.8	28.33
815.0	28.70
815.2	28.30
815.4	27.66
815.6	27.19
815.8	27.04
816.0	26.93
816.2	27.01
816.4	27.13
816.6	27.19
816.8	27.29
817.0	27.59
817.2	27.13
817.4	26.59
817.6	26.78
817.8	27.18
818.0	25.89
818.2	25.78
818.4	25.35
818.6	25.41
818.8	25.90
819.0	26.53
819.2	26.06
819.4	25.84
819.6	24.96
819.8	24.35
820.0	23.51
820.2	23.50
820.4	24.63
820.6	24.55
820.8	24.26
821.0	23.36
821.2	23.09
821.4	22.82
821.6	22.91
821.8	22.28
822.0	22.28
822.2	21.68
822.4	21.88
822.6	22.04
822.8	22.23
823.0	22.51
823.2	23.15
823.4	23.30
823.6	22.71
823.8	22.35
824.0	21.60
824.2	21.37
824.4	21.51
824.6	21.44
824.8	21.16
825.0	21.04
825.2	20.59
825.4	20.83
825.6	21.06
825.8	21.03
826.0	20.49
826.2	20.05
826.4	19.59
826.6	19.58
826.8	19.19
827.0	19.14
827.2	18.54
827.4	18.26
827.6	18.15
827.8	18.70
828.0	18.29
828.2	18.42
828.4	18.26
828.6	17.89
828.8	17.30
829.0	17.40
829.2	17.08
829.4	17.11
829.6	17.18
829.8	17.27
830.0	17.19
830.2	17.22
830.4	17.59
830.6	17.11
830.8	17.25
831.0	16.91
831.2	16.38
831.4	16.26
831.6	16.21
831.8	15.86
832.0	16.21
832.2	16.31
832.4	15.88
832.6	15.58
832.8	14.98
833.0	14.75
833.2	14.47
833.4	14.60
833.6	14.02
833.8	14.03
834.0	14.21
834.2	14.16
834.4	13.87
834.6	13.84
834.8	13.32
835.0	13.61
835.2	14.36
835.4	14.07
835.6	13.88
835.8	14.03
836.0	13.33
836.2	12.95
836.4	12.95
836.6	12.07
836.8	11.91
837.0	12.15
837.2	12.26
837.4	12.43
837.6	12.13
837.8	12.02
838.0	11.75
838.2	11.77
838.4	12.04
838.6	11.74
838.8	11.49
839.0	11.72
839.2	11.64
839.4	11.72
839.6	11.69
839.8	11.02
840.0	10.77
840.2	10.48
840.4	10.40
840.6	9.884
840.8	9.342
841.0	8.880
841.2	8.720
841.4	8.862
841.6	9.184
841.8	9.328
842.0	9.400
842.2	9.130
842.4	9.312
842.6	9.392
842.8	9.206
843.0	9.070
843.2	8.849
843.4	8.378
843.6	8.869
843.8	8.815
844.0	8.508
844.2	8.102
844.4	8.094
844.6	8.098
844.8	8.392
845.0	8.492
845.2	8.066
845.4	7.431
845.6	7.128
845.8	7.237
846.0	7.434
846.2	7.590
846.4	7.350
846.6	7.046
846.8	6.863
847.0	7.046
847.2	7.053
847.4	6.955
847.6	6.918
847.8	6.732
848.0	6.545
848.2	6.307
848.4	6.016
848.6	5.896
848.8	5.857
849.0	5.625
849.2	5.718
849.4	5.841
849.6	5.728
849.8	5.835
850.0	5.810
850.2	6.022
850.4	6.309
850.6	6.393
850.8	5.987
851.0	5.805
851.2	5.397
851.4	5.360
851.6	5.570
851.8	5.413
852.0	5.176
852.2	5.145
852.4	5.175
852.6	5.123
852.8	5.189
853.0	4.817
853.2	4.535
853.4	4.429
853.6	4.762
853.8	5.126
854.0	5.192
854.2	4.996
854.4	4.480
854.6	4.075
854.8	4.192
855.0	4.429
855.2	4.548
855.4	4.767
855.6	4.555
855.8	4.562
856.0	4.456
856.2	4.079
856.4	3.795
856.6	4.034
856.8	3.933
857.0	4.087
857.2	4.040
857.4	3.725
857.6	3.567
857.8	3.824
858.0	3.716
858.2	3.870
858.4	3.922
858.6	3.470
858.8	3.338
859.0	3.472
859.2	3.508
859.4	3.905
859.6	3.940
859.8	3.765
860.0	3.635
860.2	3.356
860.4	3.213
860.6	3.388
860.8	3.567
861.0	3.916
861.2	4.091
861.4	3.822
861.6	3.707
861.8	3.564
862.0	3.552
862.2	3.623
862.4	3.537
862.6	3.443
862.8	3.484
863.0	3.266
863.2	3.225
863.4	3.084
863.6	2.923
863.8	3.002
864.0	3.246
864.2	3.442
864.4	3.548
864.6	3.315
864.8	3.043
865.0	2.785
865.2	2.791
865.4	2.880
865.6	2.916
865.8	2.848
866.0	2.858
866.2	2.912
866.4	3.085
866.6	2.938
866.8	3.005
867.0	2.907
867.2	2.928
867.4	3.175
867.6	3.339
867.8	3.271
868.0	3.331
868.2	3.205
868.4	2.967
868.6	2.889
868.8	2.686
869.0	2.598
869.2	2.599
869.4	2.845
869.6	2.944
869.8	3.004
870.0	3.128
870.2	3.152
870.4	3.011
870.6	3.172
870.8	2.990
871.0	2.835
871.2	2.844
871.4	2.910
871.6	2.784
871.8	2.825
872.0	2.751
872.2	2.659
872.4	2.638
872.6	2.639
872.8	2.696
873.0	2.589
873.2	2.472
873.4	2.489
873.6	2.783
873.8	2.731
874.0	2.941
874.2	2.858
874.4	2.848
874.6	2.770
874.8	2.683
875.0	2.531
875.2	2.461
875.4	2.459
875.6	2.799
875.8	2.837
876.0	2.897
876.2	2.745
876.4	2.567
876.6	2.451
876.8	2.389
877.0	2.479
877.2	2.669
877.4	2.650
877.6	2.683
877.8	2.488
878.0	2.261
878.2	2.228
878.4	2.298
878.6	2.452
878.8	2.590
879.0	2.556
879.2	2.451
879.4	2.274
879.6	2.148
879.8	2.295
880.0	2.423
880.2	2.687
880.4	2.760
880.6	2.534
880.8	2.344
881.0	2.444
881.2	2.315
881.4	2.627
881.6	2.657
881.8	2.487
882.0	2.361
882.2	2.504
882.4	2.408
882.6	2.574
882.8	2.633
883.0	2.729
883.2	2.649
883.4	2.683
883.6	2.628
883.8	2.597
884.0	2.611
884.2	2.536
884.4	2.364
884.6	2.292
884.8	2.416
885.0	2.504
885.2	2.510
885.4	2.498
885.6	2.450
885.8	2.386
886.0	2.322
886.2	2.394
886.4	2.528
886.6	2.629
886.8	2.689
887.0	2.454
887.2	2.118
887.4	2.086
887.6	2.254
887.8	2.303
888.0	2.426
888.2	2.524
888.4	2.459
888.6	2.635
888.8	2.675
889.0	2.540
889.2	2.561
889.4	2.617
889.6	2.619
889.8	2.647
890.0	2.330
890.2	2.194
890.4	2.391
890.6	2.423
890.8	2.518
891.0	2.451
891.2	2.264
891.4	2.213
891.6	2.315
891.8	2.399
892.0	2.373
892.2	2.500
892.4	2.412
892.6	2.237
892.8	2.294
893.0	2.300
893.2	2.326
893.4	2.851
893.6	2.958
893.8	3.064
894.0	3.023
894.2	2.530
894.4	2.282
894.6	2.313
894.8	2.388
895.0	2.475
895.2	2.170
895.4	1.924
895.6	1.898
895.8	1.822
896.0	2.295
896.2	2.455
896.4	2.489
896.6	2.688
896.8	2.790
897.0	2.604
897.2	2.635
897.4	2.449
897.6	2.446
897.8	2.502
898.0	2.551
898.2	2.438
898.4	2.481
898.6	2.536
898.8	2.414
899.0	2.408
899.2	2.233
899.4	2.119
899.6	2.305
899.8	2.576
900.0	2.856

