Sample:	'20211010A(EM)
File name:	r-NI-c-dots 300S2-.FDS
Run date:	'16:30:46, 03/22/2023
Operator:	Administrator
Comment:	'

Instrument
Model:	F-4700 FL Spectrophotometer
Serial number:	2019-001
ROM Version:	5J24010 00

Instrument parameters
Measurement type:	Wavelength scan
Scan mode:	Emission
Data mode:	Fluorescence
EX WL:	480.0 nm
EM  Start WL:	500.0 nm
EM  End WL:	900.0 nm
Scan speed:	1200 nm/min
Delay:	0.0 s
EX Slit:	10.0 nm
EM Slit:	10.0 nm
PMT Voltage:	600 V
Response:	0.002 s
Corrected spectra:	Off
Shutter control:	On

Processing performed
Savitsky-Golay smoothed
Smoothing order:	3
Number of points:	7
Number of times:	1

Peak integration
Integration method:	Rectangular
Sensitivity:	1
Threshold:	1.000

Peaks
No.	Start(nm)	Apex(nm)	End(nm)	Height(Data)	Valley(nm)	Valley(Data)
1	500.0	610.0	610.4	4154	610.4	4136
2	610.4	615.4	616.4	4184	616.4	4137
3	616.4	616.8	784.8	4164	784.8	48.81
4	784.8	785.8	790.8	50.11	790.8	42.50
5	790.8	792.4	795.2	44.89	795.2	38.83
6	795.2	797.0	809.4	40.65	809.4	29.12
7	809.4	809.8	815.0	30.71	815.0	25.94
8	815.0	815.6	820.6	27.91	820.6	21.45
9	820.6	821.2	821.8	22.98	821.8	21.08
10	821.8	822.8	835.0	22.22	835.0	11.89
11	835.0	836.0	900.0	12.94	900.0	2.745

Data points
nm	Data
500.0	459.0
500.2	464.0
500.4	469.6
500.6	475.8
500.8	482.1
501.0	490.5
501.2	497.1
501.4	502.9
501.6	508.0
501.8	513.4
502.0	519.3
502.2	526.1
502.4	531.6
502.6	539.8
502.8	548.8
503.0	556.9
503.2	564.1
503.4	568.1
503.6	572.7
503.8	577.5
504.0	586.1
504.2	592.2
504.4	600.4
504.6	605.7
504.8	612.5
505.0	622.0
505.2	631.4
505.4	637.0
505.6	647.2
505.8	654.1
506.0	664.1
506.2	671.5
506.4	676.3
506.6	682.3
506.8	691.5
507.0	701.2
507.2	714.5
507.4	721.9
507.6	724.1
507.8	728.1
508.0	735.3
508.2	744.9
508.4	756.8
508.6	765.9
508.8	767.9
509.0	774.4
509.2	784.4
509.4	793.4
509.6	800.5
509.8	807.1
510.0	810.0
510.2	817.5
510.4	826.9
510.6	837.2
510.8	847.0
511.0	856.0
511.2	863.8
511.4	872.7
511.6	883.6
511.8	894.5
512.0	902.4
512.2	909.2
512.4	914.0
512.6	918.5
512.8	927.2
513.0	936.0
513.2	943.2
513.4	954.5
513.6	962.7
513.8	973.2
514.0	982.7
514.2	991.0
514.4	1002
514.6	1014
514.8	1024
515.0	1034
515.2	1042
515.4	1045
515.6	1052
515.8	1061
516.0	1072
516.2	1081
516.4	1090
516.6	1097
516.8	1104
517.0	1113
517.2	1124
517.4	1136
517.6	1145
517.8	1152
518.0	1161
518.2	1174
518.4	1182
518.6	1192
518.8	1198
519.0	1203
519.2	1211
519.4	1222
519.6	1231
519.8	1242
520.0	1251
520.2	1261
520.4	1266
520.6	1271
520.8	1281
521.0	1292
521.2	1305
521.4	1309
521.6	1315
521.8	1324
522.0	1337
522.2	1344
522.4	1352
522.6	1356
522.8	1368
523.0	1380
523.2	1389
523.4	1392
523.6	1395
523.8	1397
524.0	1407
524.2	1418
524.4	1434
524.6	1448
524.8	1455
525.0	1456
525.2	1462
525.4	1470
525.6	1480
525.8	1488
526.0	1498
526.2	1504
526.4	1517
526.6	1525
526.8	1533
527.0	1536
527.2	1541
527.4	1548
527.6	1563
527.8	1571
528.0	1580
528.2	1585
528.4	1590
528.6	1602
528.8	1618
529.0	1623
529.2	1625
529.4	1627
529.6	1629
529.8	1635
530.0	1645
530.2	1656
530.4	1670
530.6	1681
530.8	1687
531.0	1693
531.2	1694
531.4	1702
531.6	1714
531.8	1722
532.0	1728
532.2	1735
532.4	1737
532.6	1752
532.8	1760
533.0	1762
533.2	1759
533.4	1760
533.6	1763
533.8	1777
534.0	1788
534.2	1795
534.4	1801
534.6	1813
534.8	1814
535.0	1821
535.2	1831
535.4	1839
535.6	1845
535.8	1856
536.0	1856
536.2	1863
536.4	1870
536.6	1874
536.8	1873
537.0	1875
537.2	1883
537.4	1892
537.6	1900
537.8	1908
538.0	1917
538.2	1923
538.4	1932
538.6	1935
538.8	1929
539.0	1934
539.2	1939
539.4	1950
539.6	1961
539.8	1966
540.0	1969
540.2	1972
540.4	1975
540.6	1981
540.8	1985
541.0	1994
541.2	2009
541.4	2012
541.6	2010
541.8	2017
542.0	2019
542.2	2026
542.4	2038
542.6	2040
542.8	2044
543.0	2054
543.2	2055
543.4	2060
543.6	2059
543.8	2057
544.0	2064
544.2	2068
544.4	2073
544.6	2083
544.8	2087
545.0	2093
545.2	2101
545.4	2103
545.6	2105
545.8	2112
546.0	2116
546.2	2120
546.4	2123
546.6	2125
546.8	2125
547.0	2131
547.2	2138
547.4	2146
547.6	2148
547.8	2155
548.0	2149
548.2	2146
548.4	2145
548.6	2145
548.8	2153
549.0	2168
549.2	2180
549.4	2194
549.6	2198
549.8	2196
550.0	2197
550.2	2194
550.4	2198
550.6	2206
550.8	2217
551.0	2219
551.2	2221
551.4	2219
551.6	2226
551.8	2230
552.0	2239
552.2	2237
552.4	2242
552.6	2247
552.8	2253
553.0	2258
553.2	2257
553.4	2257
553.6	2268
553.8	2273
554.0	2279
554.2	2285
554.4	2292
554.6	2292
554.8	2295
555.0	2294
555.2	2294
555.4	2301
555.6	2318
555.8	2319
556.0	2319
556.2	2321
556.4	2319
556.6	2326
556.8	2335
557.0	2338
557.2	2344
557.4	2345
557.6	2344
557.8	2349
558.0	2354
558.2	2363
558.4	2372
558.6	2377
558.8	2381
559.0	2382
559.2	2380
559.4	2381
559.6	2378
559.8	2385
560.0	2397
560.2	2398
560.4	2406
560.6	2412
560.8	2416
561.0	2423
561.2	2424
561.4	2425
561.6	2433
561.8	2442
562.0	2450
562.2	2459
562.4	2455
562.6	2461
562.8	2468
563.0	2471
563.2	2478
563.4	2486
563.6	2491
563.8	2506
564.0	2510
564.2	2504
564.4	2507
564.6	2499
564.8	2497
565.0	2506
565.2	2512
565.4	2523
565.6	2534
565.8	2541
566.0	2549
566.2	2560
566.4	2567
566.6	2577
566.8	2578
567.0	2581
567.2	2583
567.4	2584
567.6	2585
567.8	2589
568.0	2592
568.2	2606
568.4	2616
568.6	2620
568.8	2623
569.0	2628
569.2	2635
569.4	2644
569.6	2644
569.8	2648
570.0	2656
570.2	2663
570.4	2672
570.6	2682
570.8	2690
571.0	2691
571.2	2701
571.4	2701
571.6	2701
571.8	2712
572.0	2723
572.2	2728
572.4	2743
572.6	2746
572.8	2751
573.0	2759
573.2	2767
573.4	2776
573.6	2786
573.8	2784
574.0	2788
574.2	2795
574.4	2809
574.6	2826
574.8	2837
575.0	2841
575.2	2840
575.4	2845
575.6	2854
575.8	2866
576.0	2873
576.2	2881
576.4	2882
576.6	2887
576.8	2894
577.0	2902
577.2	2914
577.4	2918
577.6	2928
577.8	2939
578.0	2945
578.2	2951
578.4	2964
578.6	2971
578.8	2980
579.0	2995
579.2	2998
579.4	2999
579.6	3006
579.8	3018
580.0	3024
580.2	3034
580.4	3037
580.6	3044
580.8	3056
581.0	3073
581.2	3087
581.4	3097
581.6	3098
581.8	3104
582.0	3106
582.2	3118
582.4	3132
582.6	3142
582.8	3145
583.0	3152
583.2	3160
583.4	3174
583.6	3183
583.8	3193
584.0	3196
584.2	3199
584.4	3211
584.6	3223
584.8	3239
585.0	3260
585.2	3270
585.4	3278
585.6	3282
585.8	3287
586.0	3290
586.2	3299
586.4	3312
586.6	3326
586.8	3340
587.0	3355
587.2	3362
587.4	3375
587.6	3381
587.8	3384
588.0	3381
588.2	3387
588.4	3398
588.6	3412
588.8	3425
589.0	3426
589.2	3434
589.4	3451
589.6	3466
589.8	3480
590.0	3495
590.2	3491
590.4	3495
590.6	3509
590.8	3516
591.0	3525
591.2	3541
591.4	3546
591.6	3552
591.8	3567
592.0	3574
592.2	3583
592.4	3589
592.6	3590
592.8	3602
593.0	3608
593.2	3615
593.4	3623
593.6	3638
593.8	3651
594.0	3666
594.2	3677
594.4	3683
594.6	3681
594.8	3691
595.0	3697
595.2	3709
595.4	3730
595.6	3738
595.8	3745
596.0	3752
596.2	3752
596.4	3760
596.6	3775
596.8	3777
597.0	3784
597.2	3791
597.4	3792
597.6	3799
597.8	3815
598.0	3823
598.2	3830
598.4	3847
598.6	3851
598.8	3858
599.0	3872
599.2	3875
599.4	3873
599.6	3874
599.8	3869
600.0	3878
600.2	3901
600.4	3909
600.6	3923
600.8	3927
601.0	3933
601.2	3949
601.4	3964
601.6	3966
601.8	3977
602.0	3984
602.2	3988
602.4	3988
602.6	3983
602.8	3977
603.0	3980
603.2	3993
603.4	4006
603.6	4016
603.8	4022
604.0	4028
604.2	4036
604.4	4050
604.6	4060
604.8	4065
605.0	4064
605.2	4066
605.4	4069
605.6	4073
605.8	4076
606.0	4078
606.2	4082
606.4	4086
606.6	4083
606.8	4076
607.0	4077
607.2	4079
607.4	4089
607.6	4103
607.8	4114
608.0	4118
608.2	4122
608.4	4126
608.6	4132
608.8	4142
609.0	4150
609.2	4144
609.4	4146
609.6	4143
609.8	4148
610.0	4154
610.2	4146
610.4	4136
610.6	4142
610.8	4144
611.0	4156
611.2	4161
611.4	4161
611.6	4161
611.8	4158
612.0	4160
612.2	4165
612.4	4161
612.6	4170
612.8	4173
613.0	4167
613.2	4165
613.4	4167
613.6	4171
613.8	4171
614.0	4170
614.2	4173
614.4	4169
614.6	4175
614.8	4181
615.0	4176
615.2	4174
615.4	4184
615.6	4176
615.8	4161
616.0	4144
616.2	4139
616.4	4137
616.6	4155
616.8	4164
617.0	4162
617.2	4159
617.4	4157
617.6	4152
617.8	4155
618.0	4156
618.2	4156
618.4	4147
618.6	4139
618.8	4125
619.0	4123
619.2	4127
619.4	4133
619.6	4134
619.8	4136
620.0	4117
620.2	4110
620.4	4105
620.6	4104
620.8	4104
621.0	4106
621.2	4094
621.4	4087
621.6	4083
621.8	4080
622.0	4081
622.2	4081
622.4	4072
622.6	4067
622.8	4064
623.0	4059
623.2	4060
623.4	4057
623.6	4050
623.8	4035
624.0	4033
624.2	4025
624.4	4016
624.6	4005
624.8	3999
625.0	3987
625.2	3988
625.4	3986
625.6	3977
625.8	3966
626.0	3956
626.2	3952
626.4	3948
626.6	3947
626.8	3936
627.0	3924
627.2	3916
627.4	3914
627.6	3906
627.8	3904
628.0	3888
628.2	3864
628.4	3860
628.6	3858
628.8	3857
629.0	3861
629.2	3850
629.4	3829
629.6	3826
629.8	3821
630.0	3823
630.2	3824
630.4	3811
630.6	3799
630.8	3792
631.0	3780
631.2	3778
631.4	3768
631.6	3757
631.8	3744
632.0	3732
632.2	3722
632.4	3715
632.6	3704
632.8	3701
633.0	3691
633.2	3680
633.4	3669
633.6	3655
633.8	3650
634.0	3648
634.2	3637
634.4	3625
634.6	3611
634.8	3600
635.0	3591
635.2	3587
635.4	3576
635.6	3568
635.8	3556
636.0	3553
636.2	3538
636.4	3534
636.6	3524
636.8	3523
637.0	3514
637.2	3506
637.4	3478
637.6	3466
637.8	3444
638.0	3442
638.2	3439
638.4	3433
638.6	3421
638.8	3413
639.0	3394
639.2	3378
639.4	3365
639.6	3357
639.8	3349
640.0	3339
640.2	3328
640.4	3320
640.6	3306
640.8	3294
641.0	3283
641.2	3274
641.4	3268
641.6	3267
641.8	3255
642.0	3240
642.2	3222
642.4	3210
642.6	3197
642.8	3189
643.0	3181
643.2	3169
643.4	3147
643.6	3139
643.8	3124
644.0	3117
644.2	3116
644.4	3103
644.6	3083
644.8	3069
645.0	3057
645.2	3052
645.4	3053
645.6	3044
645.8	3036
646.0	3025
646.2	3012
646.4	2996
646.6	2985
646.8	2975
647.0	2960
647.2	2949
647.4	2935
647.6	2919
647.8	2908
648.0	2895
648.2	2881
648.4	2870
648.6	2866
648.8	2858
649.0	2850
649.2	2836
649.4	2826
649.6	2805
649.8	2796
650.0	2782
650.2	2772
650.4	2764
650.6	2755
650.8	2740
651.0	2731
651.2	2724
651.4	2714
651.6	2700
651.8	2695
652.0	2681
652.2	2671
652.4	2661
652.6	2641
652.8	2627
653.0	2620
653.2	2606
653.4	2596
653.6	2585
653.8	2571
654.0	2564
654.2	2554
654.4	2540
654.6	2526
654.8	2514
655.0	2507
655.2	2500
655.4	2491
655.6	2482
655.8	2465
656.0	2448
656.2	2440
656.4	2437
656.6	2430
656.8	2424
657.0	2413
657.2	2398
657.4	2380
657.6	2371
657.8	2359
658.0	2350
658.2	2341
658.4	2331
658.6	2319
658.8	2313
659.0	2302
659.2	2283
659.4	2266
659.6	2256
659.8	2250
660.0	2252
660.2	2248
660.4	2236
660.6	2221
660.8	2212
661.0	2199
661.2	2183
661.4	2170
661.6	2161
661.8	2152
662.0	2150
662.2	2140
662.4	2124
662.6	2113
662.8	2105
663.0	2094
663.2	2085
663.4	2068
663.6	2054
663.8	2044
664.0	2034
664.2	2029
664.4	2028
664.6	2020
664.8	2010
665.0	1996
665.2	1984
665.4	1974
665.6	1968
665.8	1956
666.0	1943
666.2	1930
666.4	1924
666.6	1918
666.8	1916
667.0	1903
667.2	1889
667.4	1873
667.6	1865
667.8	1857
668.0	1853
668.2	1840
668.4	1827
668.6	1820
668.8	1816
669.0	1807
669.2	1800
669.4	1791
669.6	1781
669.8	1770
670.0	1760
670.2	1745
670.4	1731
670.6	1728
670.8	1722
671.0	1711
671.2	1704
671.4	1693
671.6	1680
671.8	1671
672.0	1662
672.2	1651
672.4	1650
672.6	1641
672.8	1633
673.0	1625
673.2	1617
673.4	1608
673.6	1604
673.8	1593
674.0	1588
674.2	1577
674.4	1566
674.6	1553
674.8	1544
675.0	1536
675.2	1532
675.4	1524
675.6	1518
675.8	1509
676.0	1503
676.2	1494
676.4	1490
676.6	1479
676.8	1471
677.0	1460
677.2	1448
677.4	1440
677.6	1437
677.8	1428
678.0	1416
678.2	1406
678.4	1395
678.6	1389
678.8	1384
679.0	1377
679.2	1366
679.4	1364
679.6	1360
679.8	1356
680.0	1345
680.2	1334
680.4	1325
680.6	1321
680.8	1314
681.0	1306
681.2	1294
681.4	1284
681.6	1278
681.8	1272
682.0	1266
682.2	1258
682.4	1253
682.6	1245
682.8	1240
683.0	1233
683.2	1226
683.4	1220
683.6	1213
683.8	1204
684.0	1194
684.2	1189
684.4	1182
684.6	1178
684.8	1174
685.0	1167
685.2	1162
685.4	1154
685.6	1145
685.8	1135
686.0	1130
686.2	1126
686.4	1125
686.6	1116
686.8	1107
687.0	1099
687.2	1092
687.4	1090
687.6	1087
687.8	1081
688.0	1073
688.2	1067
688.4	1058
688.6	1051
688.8	1047
689.0	1043
689.2	1033
689.4	1029
689.6	1024
689.8	1018
690.0	1012
690.2	1002
690.4	991.2
690.6	986.7
690.8	985.7
691.0	981.2
691.2	974.5
691.4	970.3
691.6	965.8
691.8	965.0
692.0	963.6
692.2	955.3
692.4	948.7
692.6	944.6
692.8	940.3
693.0	932.4
693.2	928.6
693.4	925.0
693.6	919.9
693.8	916.9
694.0	913.3
694.2	904.7
694.4	897.8
694.6	895.0
694.8	888.3
695.0	883.8
695.2	874.8
695.4	868.5
695.6	860.7
695.8	858.5
696.0	858.6
696.2	856.5
696.4	852.0
696.6	848.6
696.8	842.1
697.0	837.1
697.2	833.8
697.4	831.5
697.6	829.4
697.8	825.6
698.0	816.5
698.2	811.9
698.4	804.1
698.6	802.1
698.8	799.1
699.0	796.9
699.2	791.4
699.4	789.5
699.6	783.6
699.8	779.0
700.0	774.3
700.2	770.9
700.4	771.2
700.6	766.2
700.8	760.3
701.0	750.2
701.2	745.1
701.4	739.0
701.6	741.0
701.8	739.0
702.0	738.6
702.2	733.9
702.4	733.6
702.6	728.4
702.8	723.7
703.0	720.1
703.2	719.6
703.4	715.6
703.6	710.8
703.8	705.0
704.0	699.5
704.2	697.4
704.4	699.1
704.6	697.0
704.8	688.8
705.0	680.8
705.2	674.7
705.4	673.1
705.6	674.1
705.8	674.2
706.0	669.7
706.2	665.1
706.4	660.5
706.6	655.7
706.8	653.1
707.0	649.5
707.2	645.2
707.4	642.7
707.6	642.2
707.8	638.5
708.0	634.9
708.2	628.3
708.4	621.1
708.6	613.5
708.8	611.5
709.0	608.9
709.2	607.0
709.4	605.5
709.6	603.1
709.8	600.0
710.0	596.6
710.2	590.4
710.4	587.2
710.6	585.2
710.8	582.6
711.0	582.0
711.2	579.9
711.4	574.5
711.6	567.9
711.8	563.5
712.0	560.7
712.2	556.4
712.4	553.1
712.6	550.0
712.8	547.0
713.0	548.5
713.2	548.1
713.4	545.5
713.6	539.0
713.8	534.3
714.0	529.2
714.2	524.9
714.4	520.3
714.6	520.8
714.8	516.6
715.0	512.3
715.2	505.4
715.4	501.9
715.6	503.6
715.8	506.6
716.0	503.8
716.2	498.2
716.4	490.5
716.6	486.6
716.8	485.9
717.0	485.4
717.2	481.0
717.4	476.8
717.6	471.7
717.8	467.7
718.0	464.5
718.2	465.1
718.4	462.5
718.6	459.2
718.8	455.7
719.0	453.4
719.2	449.7
719.4	449.1
719.6	447.6
719.8	442.4
720.0	437.5
720.2	436.3
720.4	433.8
720.6	433.4
720.8	431.6
721.0	427.6
721.2	422.5
721.4	419.2
721.6	417.6
721.8	415.5
722.0	411.3
722.2	407.2
722.4	404.3
722.6	399.8
722.8	399.5
723.0	400.1
723.2	398.3
723.4	392.7
723.6	389.8
723.8	385.6
724.0	381.9
724.2	380.1
724.4	377.1
724.6	373.9
724.8	370.7
725.0	370.6
725.2	367.9
725.4	366.9
725.6	366.2
725.8	364.6
726.0	361.4
726.2	359.0
726.4	356.9
726.6	354.0
726.8	351.9
727.0	348.1
727.2	344.8
727.4	341.5
727.6	341.5
727.8	337.5
728.0	336.2
728.2	333.5
728.4	329.6
728.6	327.6
728.8	323.3
729.0	319.4
729.2	316.3
729.4	313.5
729.6	312.4
729.8	311.6
730.0	308.5
730.2	307.2
730.4	308.0
730.6	306.3
730.8	304.1
731.0	300.4
731.2	296.5
731.4	293.2
731.6	294.7
731.8	293.5
732.0	289.5
732.2	289.1
732.4	287.5
732.6	286.4
732.8	284.6
733.0	281.0
733.2	276.7
733.4	274.4
733.6	271.8
733.8	269.1
734.0	266.5
734.2	265.2
734.4	266.4
734.6	264.2
734.8	261.9
735.0	257.5
735.2	254.3
735.4	254.3
735.6	257.4
735.8	256.1
736.0	253.3
736.2	250.4
736.4	245.1
736.6	243.9
736.8	243.2
737.0	241.9
737.2	241.7
737.4	240.8
737.6	238.5
737.8	238.4
738.0	235.2
738.2	232.6
738.4	231.0
738.6	230.4
738.8	230.6
739.0	228.7
739.2	225.2
739.4	223.2
739.6	220.5
739.8	221.2
740.0	219.8
740.2	216.0
740.4	212.9
740.6	212.8
740.8	212.4
741.0	211.0
741.2	207.8
741.4	206.3
741.6	204.4
741.8	203.9
742.0	205.1
742.2	204.2
742.4	204.3
742.6	206.2
742.8	203.3
743.0	198.9
743.2	195.9
743.4	193.1
743.6	191.9
743.8	192.5
744.0	190.1
744.2	188.6
744.4	188.1
744.6	187.5
744.8	186.7
745.0	185.2
745.2	183.5
745.4	181.9
745.6	179.4
745.8	177.2
746.0	176.5
746.2	175.7
746.4	175.3
746.6	174.7
746.8	174.4
747.0	173.7
747.2	172.5
747.4	171.8
747.6	170.2
747.8	168.9
748.0	167.5
748.2	166.3
748.4	162.2
748.6	160.1
748.8	160.7
749.0	162.1
749.2	162.0
749.4	162.3
749.6	159.9
749.8	157.3
750.0	156.2
750.2	153.8
750.4	152.5
750.6	150.8
750.8	150.8
751.0	150.6
751.2	150.7
751.4	150.0
751.6	149.1
751.8	145.8
752.0	146.3
752.2	145.2
752.4	145.1
752.6	143.4
752.8	142.2
753.0	140.0
753.2	138.7
753.4	136.9
753.6	136.6
753.8	136.2
754.0	136.8
754.2	136.1
754.4	134.1
754.6	132.7
754.8	130.6
755.0	130.7
755.2	129.9
755.4	130.0
755.6	128.4
755.8	126.8
756.0	124.8
756.2	123.6
756.4	123.2
756.6	124.3
756.8	123.5
757.0	122.0
757.2	120.7
757.4	118.3
757.6	118.4
757.8	118.0
758.0	117.1
758.2	115.6
758.4	114.7
758.6	113.0
758.8	113.8
759.0	112.6
759.2	111.8
759.4	110.3
759.6	110.7
759.8	109.0
760.0	109.6
760.2	109.4
760.4	109.8
760.6	109.8
760.8	108.5
761.0	106.1
761.2	104.7
761.4	103.0
761.6	103.1
761.8	103.2
762.0	101.7
762.2	101.7
762.4	100.4
762.6	98.92
762.8	98.18
763.0	96.95
763.2	96.43
763.4	97.08
763.6	97.44
763.8	98.13
764.0	97.44
764.2	96.45
764.4	95.01
764.6	93.80
764.8	93.66
765.0	93.15
765.2	92.27
765.4	91.90
765.6	90.63
765.8	89.93
766.0	90.30
766.2	89.07
766.4	88.36
766.6	88.24
766.8	86.63
767.0	86.52
767.2	85.84
767.4	84.90
767.6	83.95
767.8	84.46
768.0	83.51
768.2	83.64
768.4	83.58
768.6	83.36
768.8	82.20
769.0	81.16
769.2	79.92
769.4	79.27
769.6	79.02
769.8	77.45
770.0	77.81
770.2	77.05
770.4	76.92
770.6	76.49
770.8	74.53
771.0	73.84
771.2	75.00
771.4	74.54
771.6	74.06
771.8	73.11
772.0	72.15
772.2	73.11
772.4	72.72
772.6	71.98
772.8	70.68
773.0	70.43
773.2	71.06
773.4	70.46
773.6	69.70
773.8	67.87
774.0	66.80
774.2	66.80
774.4	67.45
774.6	67.43
774.8	67.04
775.0	65.82
775.2	65.47
775.4	64.98
775.6	64.21
775.8	63.71
776.0	62.81
776.2	63.00
776.4	62.93
776.6	62.99
776.8	62.28
777.0	62.13
777.2	61.83
777.4	61.36
777.6	60.78
777.8	60.58
778.0	59.68
778.2	58.89
778.4	58.41
778.6	58.84
778.8	59.18
779.0	59.61
779.2	58.30
779.4	58.05
779.6	58.43
779.8	58.39
780.0	57.45
780.2	55.66
780.4	54.48
780.6	54.54
780.8	55.42
781.0	56.08
781.2	55.97
781.4	55.48
781.6	55.16
781.8	54.34
782.0	54.23
782.2	54.49
782.4	54.13
782.6	53.93
782.8	52.74
783.0	52.27
783.2	51.68
783.4	51.22
783.6	51.33
783.8	51.70
784.0	51.39
784.2	51.00
784.4	49.76
784.6	49.32
784.8	48.81
785.0	48.90
785.2	49.13
785.4	49.11
785.6	49.35
785.8	50.11
786.0	50.01
786.2	49.47
786.4	48.36
786.6	47.10
786.8	47.43
787.0	47.57
787.2	47.97
787.4	47.76
787.6	46.58
787.8	45.61
788.0	46.02
788.2	45.34
788.4	45.10
788.6	44.89
788.8	45.34
789.0	45.30
789.2	45.61
789.4	44.96
789.6	44.07
789.8	44.11
790.0	44.43
790.2	43.83
790.4	43.21
790.6	43.03
790.8	42.50
791.0	42.83
791.2	44.21
791.4	44.05
791.6	43.75
791.8	44.72
792.0	44.68
792.2	44.48
792.4	44.89
792.6	43.13
792.8	41.58
793.0	41.21
793.2	40.99
793.4	41.18
793.6	41.47
793.8	41.86
794.0	41.48
794.2	41.21
794.4	40.65
794.6	40.28
794.8	39.30
795.0	39.33
795.2	38.83
795.4	39.26
795.6	39.55
795.8	40.23
796.0	39.59
796.2	39.14
796.4	38.86
796.6	39.79
796.8	40.21
797.0	40.65
797.2	39.94
797.4	39.23
797.6	38.73
797.8	38.92
798.0	38.36
798.2	38.33
798.4	38.14
798.6	38.34
798.8	38.18
799.0	38.09
799.2	37.11
799.4	36.52
799.6	36.16
799.8	35.95
800.0	36.49
800.2	36.78
800.4	36.74
800.6	36.28
800.8	36.62
801.0	36.28
801.2	36.88
801.4	36.40
801.6	36.25
801.8	35.67
802.0	35.59
802.2	35.31
802.4	35.82
802.6	34.88
802.8	34.74
803.0	34.64
803.2	34.52
803.4	34.85
803.6	35.02
803.8	34.41
804.0	33.70
804.2	33.26
804.4	32.98
804.6	33.29
804.8	33.73
805.0	34.08
805.2	33.15
805.4	33.15
805.6	32.61
805.8	33.32
806.0	33.23
806.2	33.36
806.4	32.59
806.6	32.78
806.8	32.35
807.0	32.64
807.2	32.48
807.4	32.33
807.6	31.54
807.8	31.55
808.0	30.70
808.2	30.61
808.4	31.30
808.6	31.56
808.8	30.67
809.0	30.16
809.2	29.17
809.4	29.12
809.6	29.41
809.8	30.71
810.0	30.35
810.2	30.33
810.4	30.04
810.6	29.58
810.8	28.81
811.0	28.73
811.2	28.56
811.4	28.45
811.6	28.53
811.8	27.79
812.0	27.24
812.2	27.06
812.4	27.79
812.6	28.21
812.8	28.85
813.0	28.34
813.2	27.20
813.4	26.78
813.6	27.04
813.8	26.84
814.0	26.87
814.2	26.98
814.4	26.37
814.6	26.04
814.8	26.42
815.0	25.94
815.2	26.06
815.4	26.96
815.6	27.91
815.8	27.65
816.0	27.89
816.2	27.33
816.4	26.61
816.6	26.19
816.8	25.83
817.0	24.69
817.2	25.11
817.4	25.16
817.6	25.12
817.8	24.95
818.0	24.50
818.2	23.95
818.4	24.36
818.6	24.61
818.8	24.46
819.0	24.16
819.2	23.63
819.4	23.07
819.6	22.92
819.8	23.37
820.0	22.68
820.2	22.16
820.4	21.59
820.6	21.45
820.8	22.03
821.0	22.88
821.2	22.98
821.4	22.39
821.6	22.08
821.8	21.08
822.0	21.24
822.2	21.48
822.4	21.87
822.6	21.75
822.8	22.22
823.0	21.66
823.2	21.56
823.4	21.19
823.6	20.56
823.8	20.58
824.0	20.47
824.2	20.01
824.4	19.77
824.6	19.93
824.8	19.88
825.0	19.61
825.2	19.64
825.4	18.89
825.6	18.76
825.8	19.06
826.0	18.93
826.2	18.75
826.4	19.44
826.6	19.14
826.8	18.99
827.0	19.13
827.2	18.76
827.4	19.15
827.6	18.91
827.8	18.45
828.0	18.22
828.2	17.91
828.4	17.72
828.6	17.11
828.8	17.06
829.0	16.97
829.2	16.91
829.4	17.30
829.6	17.15
829.8	16.46
830.0	16.73
830.2	16.20
830.4	15.96
830.6	16.52
830.8	16.38
831.0	16.44
831.2	16.28
831.4	15.72
831.6	15.63
831.8	15.57
832.0	15.63
832.2	15.46
832.4	15.20
832.6	14.96
832.8	14.80
833.0	14.38
833.2	14.05
833.4	13.89
833.6	13.81
833.8	13.49
834.0	13.75
834.2	14.02
834.4	13.58
834.6	13.42
834.8	12.86
835.0	11.89
835.2	12.33
835.4	12.61
835.6	12.67
835.8	12.92
836.0	12.94
836.2	12.76
836.4	12.78
836.6	12.25
836.8	12.38
837.0	11.93
837.2	11.62
837.4	11.50
837.6	11.24
837.8	10.79
838.0	11.04
838.2	10.94
838.4	10.42
838.6	10.46
838.8	10.87
839.0	10.36
839.2	10.54
839.4	10.56
839.6	10.17
839.8	10.14
840.0	10.07
840.2	9.440
840.4	9.482
840.6	9.609
840.8	9.759
841.0	9.682
841.2	9.102
841.4	8.528
841.6	8.468
841.8	8.865
842.0	8.551
842.2	8.457
842.4	8.474
842.6	8.333
842.8	8.634
843.0	8.965
843.2	8.374
843.4	8.063
843.6	8.078
843.8	8.040
844.0	7.974
844.2	8.072
844.4	7.862
844.6	7.623
844.8	7.453
845.0	7.495
845.2	7.569
845.4	7.878
845.6	7.536
845.8	7.365
846.0	7.157
846.2	6.991
846.4	7.112
846.6	7.134
846.8	6.721
847.0	6.957
847.2	6.985
847.4	6.781
847.6	6.557
847.8	6.177
848.0	5.954
848.2	6.427
848.4	6.350
848.6	6.222
848.8	5.971
849.0	5.585
849.2	5.457
849.4	5.729
849.6	5.543
849.8	5.697
850.0	5.700
850.2	5.596
850.4	5.522
850.6	5.314
850.8	5.045
851.0	4.893
851.2	4.847
851.4	4.966
851.6	5.160
851.8	5.120
852.0	5.109
852.2	5.074
852.4	5.165
852.6	5.073
852.8	5.040
853.0	4.768
853.2	4.683
853.4	4.619
853.6	4.651
853.8	4.534
854.0	4.630
854.2	4.572
854.4	4.603
854.6	4.431
854.8	4.397
855.0	4.200
855.2	4.146
855.4	4.114
855.6	4.004
855.8	4.186
856.0	4.255
856.2	4.178
856.4	4.294
856.6	4.285
856.8	4.044
857.0	4.084
857.2	4.072
857.4	3.917
857.6	3.947
857.8	3.958
858.0	3.801
858.2	3.918
858.4	4.038
858.6	3.968
858.8	3.710
859.0	3.522
859.2	3.266
859.4	3.452
859.6	3.465
859.8	3.610
860.0	3.514
860.2	3.450
860.4	3.417
860.6	3.552
860.8	3.252
861.0	3.178
861.2	3.109
861.4	3.053
861.6	3.248
861.8	3.313
862.0	3.087
862.2	3.078
862.4	3.052
862.6	2.875
862.8	3.183
863.0	3.302
863.2	3.538
863.4	3.640
863.6	3.472
863.8	3.084
864.0	2.820
864.2	2.602
864.4	2.623
864.6	2.525
864.8	2.683
865.0	2.770
865.2	2.690
865.4	2.604
865.6	2.447
865.8	2.360
866.0	2.433
866.2	2.383
866.4	2.499
866.6	2.808
866.8	3.023
867.0	3.231
867.2	3.063
867.4	2.855
867.6	2.788
867.8	2.865
868.0	2.913
868.2	3.043
868.4	2.995
868.6	2.892
868.8	2.871
869.0	2.760
869.2	2.726
869.4	2.802
869.6	2.615
869.8	2.620
870.0	2.754
870.2	2.790
870.4	2.809
870.6	3.036
870.8	2.910
871.0	3.087
871.2	2.957
871.4	2.726
871.6	2.612
871.8	2.683
872.0	2.591
872.2	2.741
872.4	2.760
872.6	2.709
872.8	2.720
873.0	2.611
873.2	2.434
873.4	2.478
873.6	2.462
873.8	2.586
874.0	2.736
874.2	3.066
874.4	3.086
874.6	2.909
874.8	2.656
875.0	2.583
875.2	2.392
875.4	2.478
875.6	2.445
875.8	2.305
876.0	2.442
876.2	2.590
876.4	2.659
876.6	2.602
876.8	2.557
877.0	2.501
877.2	2.547
877.4	2.437
877.6	2.634
877.8	2.524
878.0	2.639
878.2	2.587
878.4	2.499
878.6	2.310
878.8	2.239
879.0	2.206
879.2	2.416
879.4	2.479
879.6	2.405
879.8	2.471
880.0	2.363
880.2	2.610
880.4	2.612
880.6	2.558
880.8	2.363
881.0	2.378
881.2	2.372
881.4	2.592
881.6	2.551
881.8	2.499
882.0	2.645
882.2	2.621
882.4	2.495
882.6	2.424
882.8	2.134
883.0	1.937
883.2	2.026
883.4	2.108
883.6	2.220
883.8	2.639
884.0	2.596
884.2	2.575
884.4	2.498
884.6	2.507
884.8	2.420
885.0	2.537
885.2	2.375
885.4	2.242
885.6	2.332
885.8	2.386
886.0	2.385
886.2	2.560
886.4	2.644
886.6	2.641
886.8	2.815
887.0	2.476
887.2	2.353
887.4	2.444
887.6	2.435
887.8	2.458
888.0	2.522
888.2	2.320
888.4	2.328
888.6	2.321
888.8	2.213
889.0	2.143
889.2	2.269
889.4	2.317
889.6	2.443
889.8	2.486
890.0	2.471
890.2	2.476
890.4	2.619
890.6	2.543
890.8	2.556
891.0	2.460
891.2	2.450
891.4	2.327
891.6	2.523
891.8	2.619
892.0	2.613
892.2	2.625
892.4	2.596
892.6	2.286
892.8	2.402
893.0	2.613
893.2	2.673
893.4	2.572
893.6	2.370
893.8	2.266
894.0	2.391
894.2	2.617
894.4	2.760
894.6	2.558
894.8	2.234
895.0	2.242
895.2	2.214
895.4	2.190
895.6	2.355
895.8	2.443
896.0	2.509
896.2	2.569
896.4	2.566
896.6	2.604
896.8	2.575
897.0	2.649
897.2	2.774
897.4	2.527
897.6	2.361
897.8	2.446
898.0	2.481
898.2	2.720
898.4	2.907
898.6	2.625
898.8	2.510
899.0	2.468
899.2	2.553
899.4	2.515
899.6	2.448
899.8	2.490
900.0	2.745

