Sample:	'20211010A(EM)
File name:	G-CDs 3.FDS
Run date:	'18:17:05, 06/10/2023
Operator:	Administrator
Comment:	'

Instrument
Model:	F-4700 FL Spectrophotometer
Serial number:	2019-001
ROM Version:	5J24010 00

Instrument parameters
Measurement type:	Wavelength scan
Scan mode:	Emission
Data mode:	Fluorescence
EX WL:	400.0 nm
EM  Start WL:	420.0 nm
EM  End WL:	800.0 nm
Scan speed:	1200 nm/min
Delay:	0.0 s
EX Slit:	10.0 nm
EM Slit:	10.0 nm
PMT Voltage:	380 V
Response:	0.002 s
Corrected spectra:	Off
Shutter control:	On

Processing performed
Savitsky-Golay smoothed
Smoothing order:	3
Number of points:	7
Number of times:	1

Peak integration
Integration method:	Rectangular
Sensitivity:	1
Threshold:	1.000

Peaks
No.	Start(nm)	Apex(nm)	End(nm)	Height(Data)	Valley(nm)	Valley(Data)
1	420.0	541.6	800.0	1747	800.0	1.311

Data points
nm	Data
420.0	1.221
420.2	1.249
420.4	1.215
420.6	1.158
420.8	1.146
421.0	1.172
421.2	1.176
421.4	1.210
421.6	1.200
421.8	1.183
422.0	1.207
422.2	1.221
422.4	1.188
422.6	1.198
422.8	1.173
423.0	1.160
423.2	1.175
423.4	1.186
423.6	1.177
423.8	1.214
424.0	1.244
424.2	1.255
424.4	1.256
424.6	1.219
424.8	1.163
425.0	1.152
425.2	1.166
425.4	1.192
425.6	1.182
425.8	1.126
426.0	1.144
426.2	1.197
426.4	1.261
426.6	1.302
426.8	1.285
427.0	1.205
427.2	1.207
427.4	1.236
427.6	1.271
427.8	1.268
428.0	1.258
428.2	1.216
428.4	1.190
428.6	1.219
428.8	1.240
429.0	1.265
429.2	1.282
429.4	1.284
429.6	1.266
429.8	1.285
430.0	1.286
430.2	1.296
430.4	1.291
430.6	1.265
430.8	1.288
431.0	1.354
431.2	1.388
431.4	1.388
431.6	1.344
431.8	1.274
432.0	1.276
432.2	1.295
432.4	1.317
432.6	1.340
432.8	1.330
433.0	1.322
433.2	1.344
433.4	1.372
433.6	1.380
433.8	1.431
434.0	1.423
434.2	1.367
434.4	1.339
434.6	1.378
434.8	1.429
435.0	1.462
435.2	1.475
435.4	1.424
435.6	1.403
435.8	1.406
436.0	1.460
436.2	1.500
436.4	1.542
436.6	1.618
436.8	1.619
437.0	1.611
437.2	1.602
437.4	1.635
437.6	1.647
437.8	1.740
438.0	1.740
438.2	1.781
438.4	1.760
438.6	1.770
438.8	1.767
439.0	1.762
439.2	1.750
439.4	1.765
439.6	1.804
439.8	1.871
440.0	1.880
440.2	1.838
440.4	1.886
440.6	1.888
440.8	1.875
441.0	1.933
441.2	1.929
441.4	1.915
441.6	2.032
441.8	2.103
442.0	2.121
442.2	2.142
442.4	2.130
442.6	2.128
442.8	2.187
443.0	2.225
443.2	2.270
443.4	2.186
443.6	2.158
443.8	2.203
444.0	2.223
444.2	2.256
444.4	2.313
444.6	2.331
444.8	2.373
445.0	2.405
445.2	2.362
445.4	2.392
445.6	2.458
445.8	2.534
446.0	2.551
446.2	2.576
446.4	2.541
446.6	2.539
446.8	2.645
447.0	2.684
447.2	2.667
447.4	2.665
447.6	2.610
447.8	2.635
448.0	2.730
448.2	2.779
448.4	2.790
448.6	2.735
448.8	2.709
449.0	2.738
449.2	2.794
449.4	2.859
449.6	2.916
449.8	2.917
450.0	2.926
450.2	2.864
450.4	2.862
450.6	2.817
450.8	2.851
451.0	2.863
451.2	2.897
451.4	2.906
451.6	2.926
451.8	2.925
452.0	2.941
452.2	2.887
452.4	2.853
452.6	2.857
452.8	2.929
453.0	3.077
453.2	3.146
453.4	3.173
453.6	3.100
453.8	2.997
454.0	2.993
454.2	3.039
454.4	3.058
454.6	3.134
454.8	3.120
455.0	3.150
455.2	3.177
455.4	3.189
455.6	3.163
455.8	3.152
456.0	3.209
456.2	3.285
456.4	3.267
456.6	3.242
456.8	3.184
457.0	3.201
457.2	3.242
457.4	3.279
457.6	3.315
457.8	3.335
458.0	3.351
458.2	3.465
458.4	3.492
458.6	3.523
458.8	3.457
459.0	3.446
459.2	3.395
459.4	3.409
459.6	3.508
459.8	3.555
460.0	3.622
460.2	3.816
460.4	3.918
460.6	3.959
460.8	4.007
461.0	3.998
461.2	4.041
461.4	4.161
461.6	4.250
461.8	4.257
462.0	4.285
462.2	4.363
462.4	4.400
462.6	4.502
462.8	4.662
463.0	4.770
463.2	4.892
463.4	4.988
463.6	5.105
463.8	5.157
464.0	5.319
464.2	5.410
464.4	5.542
464.6	5.674
464.8	5.762
465.0	5.807
465.2	5.942
465.4	6.045
465.6	6.373
465.8	6.583
466.0	6.689
466.2	6.791
466.4	6.867
466.6	6.953
466.8	7.267
467.0	7.599
467.2	7.896
467.4	8.183
467.6	8.312
467.8	8.329
468.0	8.537
468.2	8.756
468.4	8.882
468.6	9.201
468.8	9.553
469.0	9.861
469.2	10.41
469.4	10.69
469.6	10.98
469.8	11.23
470.0	11.44
470.2	11.65
470.4	11.94
470.6	12.28
470.8	12.75
471.0	13.20
471.2	13.59
471.4	13.97
471.6	14.24
471.8	14.67
472.0	14.86
472.2	15.33
472.4	15.70
472.6	16.15
472.8	16.72
473.0	17.35
473.2	17.72
473.4	18.27
473.6	18.69
473.8	19.00
474.0	19.65
474.2	20.27
474.4	20.90
474.6	21.63
474.8	22.25
475.0	22.65
475.2	23.12
475.4	23.60
475.6	24.14
475.8	24.82
476.0	25.39
476.2	26.03
476.4	26.81
476.6	27.68
476.8	28.40
477.0	29.19
477.2	29.79
477.4	30.36
477.6	31.07
477.8	32.01
478.0	32.77
478.2	33.64
478.4	34.43
478.6	35.19
478.8	35.89
479.0	36.93
479.2	37.83
479.4	38.83
479.6	39.62
479.8	40.68
480.0	41.74
480.2	42.65
480.4	43.69
480.6	44.67
480.8	45.56
481.0	46.90
481.2	48.05
481.4	48.99
481.6	50.10
481.8	51.10
482.0	52.13
482.2	53.13
482.4	54.16
482.6	55.43
482.8	56.98
483.0	58.67
483.2	60.20
483.4	61.56
483.6	63.02
483.8	64.20
484.0	65.34
484.2	66.45
484.4	67.48
484.6	69.03
484.8	70.76
485.0	72.52
485.2	74.15
485.4	75.87
485.6	77.73
485.8	79.87
486.0	81.67
486.2	83.24
486.4	84.78
486.6	86.36
486.8	87.79
487.0	89.76
487.2	91.76
487.4	94.19
487.6	96.81
487.8	99.05
488.0	100.8
488.2	102.8
488.4	105.0
488.6	107.7
488.8	110.1
489.0	112.0
489.2	114.3
489.4	116.6
489.6	118.9
489.8	121.7
490.0	124.0
490.2	126.8
490.4	129.9
490.6	132.8
490.8	136.0
491.0	139.1
491.2	141.8
491.4	145.1
491.6	147.9
491.8	150.8
492.0	154.4
492.2	157.4
492.4	160.7
492.6	164.6
492.8	168.2
493.0	172.0
493.2	175.7
493.4	179.0
493.6	182.5
493.8	186.5
494.0	190.5
494.2	194.8
494.4	198.9
494.6	203.4
494.8	207.4
495.0	211.5
495.2	216.0
495.4	220.0
495.6	224.7
495.8	229.4
496.0	233.7
496.2	238.4
496.4	243.6
496.6	248.4
496.8	253.7
497.0	258.7
497.2	263.8
497.4	268.8
497.6	274.4
497.8	279.7
498.0	286.0
498.2	292.5
498.4	298.4
498.6	303.8
498.8	309.0
499.0	314.4
499.2	320.8
499.4	327.9
499.6	334.7
499.8	341.3
500.0	347.0
500.2	354.1
500.4	360.1
500.6	366.7
500.8	373.8
501.0	381.5
501.2	388.3
501.4	395.8
501.6	402.1
501.8	408.4
502.0	415.2
502.2	423.7
502.4	431.3
502.6	438.6
502.8	446.4
503.0	454.0
503.2	461.1
503.4	469.9
503.6	477.6
503.8	484.5
504.0	493.2
504.2	501.9
504.4	510.1
504.6	519.2
504.8	527.6
505.0	536.7
505.2	547.1
505.4	556.3
505.6	564.8
505.8	572.2
506.0	579.1
506.2	587.9
506.4	597.0
506.6	606.6
506.8	616.0
507.0	624.7
507.2	633.6
507.4	643.4
507.6	652.5
507.8	661.9
508.0	669.9
508.2	678.3
508.4	687.3
508.6	697.1
508.8	707.1
509.0	717.5
509.2	726.5
509.4	736.1
509.6	745.2
509.8	754.7
510.0	764.7
510.2	774.6
510.4	784.0
510.6	794.2
510.8	804.5
511.0	815.0
511.2	824.2
511.4	833.6
511.6	842.3
511.8	851.5
512.0	861.0
512.2	869.9
512.4	878.3
512.6	888.5
512.8	898.6
513.0	910.2
513.2	921.6
513.4	930.9
513.6	939.8
513.8	949.0
514.0	958.3
514.2	968.9
514.4	981.9
514.6	992.6
514.8	1003
515.0	1014
515.2	1024
515.4	1032
515.6	1042
515.8	1050
516.0	1060
516.2	1069
516.4	1079
516.6	1089
516.8	1097
517.0	1106
517.2	1116
517.4	1123
517.6	1132
517.8	1143
518.0	1152
518.2	1162
518.4	1170
518.6	1179
518.8	1189
519.0	1200
519.2	1211
519.4	1219
519.6	1226
519.8	1233
520.0	1242
520.2	1253
520.4	1264
520.6	1273
520.8	1281
521.0	1288
521.2	1295
521.4	1302
521.6	1311
521.8	1322
522.0	1334
522.2	1343
522.4	1350
522.6	1358
522.8	1366
523.0	1375
523.2	1382
523.4	1389
523.6	1396
523.8	1404
524.0	1410
524.2	1418
524.4	1426
524.6	1434
524.8	1444
525.0	1452
525.2	1458
525.4	1465
525.6	1470
525.8	1477
526.0	1486
526.2	1495
526.4	1502
526.6	1509
526.8	1513
527.0	1520
527.2	1526
527.4	1533
527.6	1539
527.8	1545
528.0	1550
528.2	1555
528.4	1560
528.6	1566
528.8	1571
529.0	1578
529.2	1585
529.4	1591
529.6	1596
529.8	1600
530.0	1603
530.2	1609
530.4	1614
530.6	1620
530.8	1625
531.0	1631
531.2	1636
531.4	1642
531.6	1647
531.8	1652
532.0	1656
532.2	1659
532.4	1659
532.6	1661
532.8	1664
533.0	1669
533.2	1674
533.4	1677
533.6	1681
533.8	1685
534.0	1687
534.2	1691
534.4	1694
534.6	1698
534.8	1702
535.0	1706
535.2	1709
535.4	1711
535.6	1711
535.8	1713
536.0	1713
536.2	1717
536.4	1720
536.6	1723
536.8	1724
537.0	1726
537.2	1729
537.4	1732
537.6	1733
537.8	1734
538.0	1733
538.2	1735
538.4	1735
538.6	1738
538.8	1740
539.0	1742
539.2	1742
539.4	1745
539.6	1743
539.8	1744
540.0	1743
540.2	1744
540.4	1744
540.6	1745
540.8	1745
541.0	1746
541.2	1745
541.4	1746
541.6	1747
541.8	1745
542.0	1744
542.2	1743
542.4	1743
542.6	1742
542.8	1742
543.0	1740
543.2	1740
543.4	1740
543.6	1739
543.8	1739
544.0	1739
544.2	1737
544.4	1734
544.6	1732
544.8	1729
545.0	1728
545.2	1728
545.4	1730
545.6	1729
545.8	1729
546.0	1728
546.2	1726
546.4	1723
546.6	1721
546.8	1718
547.0	1716
547.2	1713
547.4	1713
547.6	1710
547.8	1709
548.0	1707
548.2	1703
548.4	1699
548.6	1698
548.8	1696
549.0	1694
549.2	1692
549.4	1688
549.6	1685
549.8	1683
550.0	1681
550.2	1679
550.4	1678
550.6	1674
550.8	1672
551.0	1670
551.2	1669
551.4	1667
551.6	1664
551.8	1659
552.0	1656
552.2	1651
552.4	1650
552.6	1645
552.8	1642
553.0	1638
553.2	1635
553.4	1630
553.6	1628
553.8	1625
554.0	1623
554.2	1618
554.4	1615
554.6	1613
554.8	1611
555.0	1609
555.2	1603
555.4	1594
555.6	1589
555.8	1584
556.0	1583
556.2	1580
556.4	1577
556.6	1573
556.8	1569
557.0	1562
557.2	1558
557.4	1553
557.6	1550
557.8	1548
558.0	1544
558.2	1539
558.4	1536
558.6	1530
558.8	1524
559.0	1520
559.2	1514
559.4	1510
559.6	1510
559.8	1507
560.0	1503
560.2	1499
560.4	1495
560.6	1493
560.8	1489
561.0	1483
561.2	1476
561.4	1471
561.6	1465
561.8	1462
562.0	1458
562.2	1455
562.4	1450
562.6	1445
562.8	1437
563.0	1433
563.2	1428
563.4	1424
563.6	1419
563.8	1416
564.0	1411
564.2	1407
564.4	1402
564.6	1397
564.8	1392
565.0	1389
565.2	1384
565.4	1378
565.6	1373
565.8	1367
566.0	1362
566.2	1357
566.4	1351
566.6	1347
566.8	1342
567.0	1338
567.2	1334
567.4	1329
567.6	1325
567.8	1320
568.0	1314
568.2	1309
568.4	1305
568.6	1301
568.8	1297
569.0	1292
569.2	1287
569.4	1282
569.6	1277
569.8	1271
570.0	1266
570.2	1262
570.4	1257
570.6	1253
570.8	1249
571.0	1242
571.2	1236
571.4	1231
571.6	1226
571.8	1222
572.0	1218
572.2	1213
572.4	1209
572.6	1204
572.8	1199
573.0	1194
573.2	1187
573.4	1183
573.6	1180
573.8	1175
574.0	1171
574.2	1167
574.4	1161
574.6	1157
574.8	1153
575.0	1148
575.2	1143
575.4	1137
575.6	1132
575.8	1129
576.0	1126
576.2	1121
576.4	1115
576.6	1107
576.8	1101
577.0	1097
577.2	1094
577.4	1091
577.6	1086
577.8	1080
578.0	1077
578.2	1074
578.4	1069
578.6	1065
578.8	1058
579.0	1054
579.2	1051
579.4	1048
579.6	1042
579.8	1036
580.0	1030
580.2	1025
580.4	1020
580.6	1015
580.8	1010
581.0	1005
581.2	1001
581.4	997.0
581.6	993.3
581.8	989.2
582.0	984.6
582.2	980.5
582.4	975.5
582.6	971.1
582.8	967.1
583.0	963.7
583.2	960.3
583.4	957.1
583.6	952.9
583.8	948.0
584.0	943.0
584.2	938.4
584.4	934.0
584.6	930.3
584.8	926.2
585.0	921.8
585.2	916.6
585.4	911.5
585.6	907.6
585.8	903.2
586.0	899.5
586.2	895.2
586.4	889.9
586.6	886.0
586.8	882.1
587.0	878.2
587.2	874.6
587.4	870.3
587.6	866.5
587.8	862.1
588.0	857.3
588.2	854.0
588.4	849.2
588.6	845.4
588.8	843.1
589.0	838.9
589.2	835.8
589.4	832.6
589.6	827.6
589.8	822.9
590.0	818.4
590.2	814.7
590.4	811.8
590.6	809.1
590.8	805.4
591.0	801.8
591.2	797.5
591.4	793.7
591.6	789.1
591.8	784.2
592.0	779.8
592.2	776.0
592.4	771.8
592.6	767.5
592.8	764.1
593.0	759.6
593.2	756.8
593.4	752.9
593.6	749.3
593.8	746.5
594.0	743.0
594.2	739.6
594.4	735.6
594.6	731.6
594.8	727.6
595.0	724.0
595.2	719.9
595.4	717.4
595.6	713.0
595.8	708.9
596.0	704.3
596.2	700.4
596.4	697.8
596.6	695.7
596.8	693.0
597.0	689.5
597.2	686.3
597.4	681.8
597.6	677.7
597.8	673.6
598.0	669.9
598.2	667.3
598.4	664.9
598.6	660.7
598.8	657.4
599.0	654.2
599.2	651.2
599.4	649.5
599.6	646.3
599.8	642.5
600.0	639.1
600.2	634.6
600.4	629.9
600.6	625.1
600.8	620.5
601.0	616.0
601.2	614.4
601.4	612.5
601.6	610.8
601.8	607.5
602.0	604.1
602.2	600.9
602.4	599.1
602.6	596.8
602.8	595.0
603.0	590.9
603.2	586.8
603.4	583.1
603.6	579.4
603.8	576.4
604.0	573.3
604.2	569.8
604.4	567.0
604.6	563.4
604.8	559.6
605.0	556.3
605.2	552.3
605.4	550.9
605.6	549.3
605.8	546.7
606.0	543.3
606.2	539.9
606.4	536.5
606.6	534.5
606.8	531.2
607.0	527.5
607.2	524.2
607.4	520.7
607.6	517.1
607.8	513.9
608.0	511.0
608.2	508.5
608.4	506.7
608.6	505.4
608.8	502.6
609.0	499.1
609.2	496.3
609.4	492.1
609.6	489.3
609.8	487.4
610.0	484.1
610.2	481.4
610.4	478.9
610.6	474.9
610.8	473.0
611.0	470.2
611.2	467.6
611.4	465.6
611.6	462.6
611.8	459.4
612.0	456.6
612.2	453.6
612.4	451.6
612.6	449.3
612.8	446.7
613.0	444.1
613.2	441.3
613.4	439.4
613.6	436.8
613.8	433.8
614.0	430.6
614.2	427.4
614.4	424.4
614.6	422.2
614.8	419.3
615.0	416.7
615.2	414.7
615.4	412.3
615.6	409.5
615.8	407.2
616.0	404.5
616.2	402.6
616.4	400.8
616.6	398.5
616.8	395.1
617.0	392.7
617.2	390.7
617.4	388.8
617.6	386.1
617.8	383.4
618.0	379.9
618.2	377.3
618.4	376.0
618.6	374.7
618.8	373.3
619.0	371.1
619.2	368.4
619.4	365.0
619.6	362.0
619.8	358.6
620.0	357.1
620.2	354.9
620.4	353.6
620.6	351.7
620.8	349.7
621.0	346.9
621.2	344.5
621.4	341.8
621.6	339.4
621.8	337.4
622.0	335.8
622.2	334.3
622.4	332.1
622.6	329.6
622.8	327.1
623.0	325.2
623.2	323.4
623.4	321.7
623.6	319.7
623.8	317.7
624.0	316.2
624.2	313.9
624.4	312.1
624.6	309.9
624.8	307.4
625.0	304.9
625.2	302.8
625.4	300.7
625.6	298.7
625.8	296.4
626.0	294.6
626.2	292.6
626.4	291.4
626.6	289.6
626.8	287.9
627.0	285.9
627.2	284.4
627.4	282.5
627.6	280.6
627.8	278.2
628.0	276.9
628.2	274.6
628.4	272.1
628.6	270.4
628.8	268.9
629.0	267.2
629.2	266.1
629.4	264.1
629.6	261.9
629.8	260.2
630.0	259.0
630.2	256.8
630.4	255.8
630.6	253.9
630.8	252.4
631.0	251.0
631.2	249.2
631.4	247.5
631.6	246.2
631.8	244.2
632.0	242.4
632.2	241.0
632.4	239.0
632.6	238.0
632.8	236.3
633.0	234.6
633.2	232.5
633.4	230.6
633.6	228.6
633.8	227.0
634.0	225.4
634.2	224.0
634.4	222.7
634.6	221.5
634.8	220.1
635.0	218.7
635.2	217.7
635.4	216.8
635.6	215.7
635.8	214.7
636.0	213.0
636.2	211.3
636.4	208.9
636.6	207.5
636.8	206.1
637.0	205.3
637.2	204.3
637.4	203.4
637.6	201.4
637.8	199.8
638.0	198.0
638.2	196.4
638.4	195.0
638.6	193.9
638.8	193.0
639.0	192.5
639.2	191.1
639.4	189.8
639.6	188.3
639.8	186.4
640.0	185.3
640.2	184.3
640.4	182.6
640.6	180.8
640.8	179.1
641.0	177.4
641.2	177.2
641.4	176.8
641.6	176.3
641.8	175.0
642.0	173.7
642.2	172.2
642.4	170.9
642.6	169.7
642.8	168.4
643.0	167.0
643.2	165.3
643.4	164.3
643.6	163.3
643.8	162.5
644.0	161.4
644.2	160.4
644.4	159.3
644.6	158.7
644.8	157.5
645.0	156.2
645.2	154.8
645.4	153.5
645.6	152.6
645.8	151.4
646.0	150.1
646.2	149.7
646.4	149.0
646.6	147.6
646.8	146.7
647.0	144.8
647.2	143.4
647.4	142.5
647.6	141.9
647.8	141.2
648.0	140.8
648.2	139.7
648.4	138.9
648.6	137.5
648.8	136.6
649.0	135.4
649.2	134.2
649.4	133.1
649.6	132.7
649.8	131.9
650.0	131.3
650.2	130.4
650.4	129.5
650.6	128.4
650.8	127.5
651.0	126.2
651.2	125.0
651.4	124.3
651.6	123.3
651.8	122.8
652.0	122.1
652.2	121.1
652.4	120.3
652.6	119.6
652.8	118.7
653.0	118.1
653.2	117.1
653.4	116.1
653.6	115.3
653.8	114.3
654.0	113.5
654.2	112.7
654.4	112.3
654.6	111.7
654.8	110.7
655.0	109.8
655.2	108.9
655.4	108.0
655.6	107.6
655.8	106.8
656.0	106.1
656.2	105.6
656.4	104.8
656.6	104.1
656.8	103.1
657.0	102.1
657.2	101.4
657.4	100.8
657.6	100.3
657.8	100.1
658.0	99.39
658.2	98.40
658.4	97.40
658.6	96.38
658.8	95.67
659.0	94.80
659.2	94.12
659.4	93.09
659.6	92.10
659.8	91.37
660.0	90.91
660.2	90.27
660.4	89.85
660.6	89.25
660.8	88.81
661.0	88.56
661.2	87.95
661.4	87.30
661.6	86.57
661.8	86.00
662.0	85.59
662.2	84.75
662.4	83.84
662.6	83.18
662.8	82.37
663.0	81.88
663.2	81.54
663.4	80.88
663.6	80.42
663.8	80.00
664.0	79.27
664.2	78.36
664.4	77.72
664.6	77.10
664.8	76.33
665.0	75.96
665.2	75.89
665.4	75.45
665.6	75.06
665.8	74.39
666.0	73.21
666.2	72.39
666.4	72.10
666.6	71.60
666.8	71.31
667.0	71.09
667.2	70.53
667.4	70.02
667.6	69.75
667.8	69.07
668.0	68.50
668.2	67.93
668.4	67.27
668.6	66.85
668.8	66.55
669.0	65.87
669.2	65.38
669.4	64.58
669.6	64.29
669.8	64.09
670.0	63.68
670.2	62.89
670.4	62.32
670.6	61.56
670.8	61.41
671.0	61.08
671.2	60.71
671.4	60.35
671.6	59.87
671.8	59.45
672.0	59.13
672.2	58.37
672.4	57.82
672.6	57.47
672.8	56.86
673.0	56.37
673.2	56.03
673.4	55.63
673.6	55.39
673.8	55.09
674.0	54.55
674.2	53.86
674.4	53.56
674.6	53.44
674.8	53.35
675.0	53.09
675.2	52.51
675.4	51.92
675.6	51.44
675.8	50.96
676.0	50.69
676.2	50.15
676.4	49.65
676.6	49.19
676.8	48.78
677.0	48.62
677.2	48.34
677.4	47.99
677.6	47.65
677.8	47.10
678.0	46.46
678.2	46.31
678.4	45.94
678.6	45.84
678.8	45.62
679.0	45.17
679.2	44.59
679.4	44.44
679.6	44.09
679.8	43.80
680.0	43.76
680.2	43.49
680.4	43.37
680.6	43.06
680.8	42.51
681.0	41.83
681.2	41.54
681.4	41.34
681.6	41.21
681.8	40.85
682.0	40.56
682.2	40.32
682.4	40.11
682.6	39.55
682.8	38.96
683.0	38.27
683.2	37.76
683.4	37.87
683.6	38.16
683.8	37.85
684.0	37.51
684.2	37.14
684.4	36.77
684.6	36.64
684.8	36.48
685.0	36.03
685.2	35.49
685.4	35.24
685.6	35.15
685.8	35.03
686.0	34.91
686.2	34.66
686.4	34.23
686.6	34.00
686.8	33.57
687.0	33.15
687.2	32.94
687.4	32.59
687.6	32.71
687.8	32.91
688.0	32.70
688.2	32.15
688.4	31.75
688.6	31.28
688.8	31.17
689.0	31.16
689.2	30.99
689.4	30.55
689.6	30.28
689.8	30.01
690.0	29.67
690.2	29.49
690.4	29.21
690.6	29.03
690.8	28.96
691.0	29.00
691.2	28.91
691.4	28.57
691.6	28.24
691.8	27.89
692.0	27.73
692.2	27.52
692.4	27.28
692.6	26.95
692.8	26.87
693.0	26.69
693.2	26.74
693.4	26.41
693.6	26.23
693.8	26.13
694.0	26.10
694.2	25.98
694.4	25.70
694.6	25.28
694.8	25.02
695.0	24.81
695.2	24.52
695.4	24.37
695.6	24.12
695.8	24.03
696.0	24.01
696.2	23.96
696.4	23.81
696.6	23.64
696.8	23.52
697.0	23.25
697.2	23.06
697.4	22.91
697.6	22.98
697.8	22.87
698.0	22.90
698.2	22.66
698.4	22.25
698.6	22.13
698.8	21.96
699.0	21.87
699.2	21.81
699.4	21.71
699.6	21.52
699.8	21.53
700.0	21.32
700.2	21.22
700.4	21.12
700.6	20.95
700.8	20.63
701.0	20.46
701.2	20.19
701.4	20.09
701.6	20.16
701.8	19.92
702.0	19.78
702.2	19.65
702.4	19.37
702.6	19.32
702.8	19.38
703.0	19.27
703.2	19.27
703.4	18.97
703.6	18.48
703.8	18.23
704.0	18.25
704.2	18.50
704.4	18.54
704.6	18.48
704.8	18.04
705.0	17.81
705.2	17.65
705.4	17.71
705.6	17.62
705.8	17.71
706.0	17.58
706.2	17.46
706.4	17.25
706.6	17.17
706.8	16.88
707.0	16.75
707.2	16.68
707.4	16.52
707.6	16.49
707.8	16.49
708.0	16.32
708.2	16.14
708.4	16.09
708.6	15.96
708.8	16.01
709.0	15.94
709.2	15.89
709.4	15.60
709.6	15.38
709.8	15.07
710.0	14.89
710.2	14.77
710.4	14.92
710.6	14.82
710.8	14.64
711.0	14.50
711.2	14.48
711.4	14.45
711.6	14.52
711.8	14.38
712.0	14.11
712.2	14.04
712.4	13.95
712.6	13.71
712.8	13.54
713.0	13.51
713.2	13.38
713.4	13.44
713.6	13.28
713.8	13.18
714.0	13.13
714.2	13.17
714.4	12.91
714.6	12.75
714.8	12.50
715.0	12.55
715.2	12.58
715.4	12.62
715.6	12.49
715.8	12.38
716.0	12.26
716.2	12.23
716.4	12.20
716.6	12.16
716.8	12.11
717.0	11.98
717.2	11.80
717.4	11.66
717.6	11.58
717.8	11.46
718.0	11.43
718.2	11.39
718.4	11.26
718.6	11.21
718.8	11.06
719.0	10.84
719.2	10.69
719.4	10.60
719.6	10.57
719.8	10.57
720.0	10.53
720.2	10.56
720.4	10.49
720.6	10.51
720.8	10.44
721.0	10.33
721.2	10.17
721.4	10.03
721.6	9.873
721.8	9.913
722.0	9.911
722.2	9.799
722.4	9.687
722.6	9.570
722.8	9.362
723.0	9.245
723.2	9.242
723.4	9.126
723.6	9.186
723.8	9.196
724.0	9.097
724.2	9.029
724.4	8.957
724.6	8.827
724.8	8.795
725.0	8.731
725.2	8.652
725.4	8.499
725.6	8.380
725.8	8.260
726.0	8.173
726.2	8.189
726.4	8.087
726.6	8.039
726.8	7.971
727.0	7.837
727.2	7.756
727.4	7.812
727.6	7.855
727.8	8.014
728.0	7.876
728.2	7.691
728.4	7.487
728.6	7.371
728.8	7.323
729.0	7.432
729.2	7.460
729.4	7.450
729.6	7.354
729.8	7.282
730.0	7.122
730.2	7.037
730.4	7.025
730.6	6.972
730.8	6.949
731.0	6.947
731.2	6.984
731.4	6.763
731.6	6.669
731.8	6.607
732.0	6.477
732.2	6.496
732.4	6.622
732.6	6.424
732.8	6.389
733.0	6.302
733.2	6.249
733.4	6.289
733.6	6.240
733.8	6.115
734.0	6.118
734.2	6.029
734.4	6.005
734.6	5.924
734.8	5.876
735.0	5.821
735.2	5.783
735.4	5.672
735.6	5.660
735.8	5.704
736.0	5.756
736.2	5.654
736.4	5.526
736.6	5.413
736.8	5.440
737.0	5.543
737.2	5.586
737.4	5.532
737.6	5.419
737.8	5.274
738.0	5.188
738.2	5.053
738.4	4.941
738.6	4.876
738.8	4.824
739.0	4.867
739.2	4.966
739.4	4.979
739.6	4.933
739.8	4.847
740.0	4.778
740.2	4.783
740.4	4.780
740.6	4.749
740.8	4.669
741.0	4.571
741.2	4.509
741.4	4.518
741.6	4.464
741.8	4.488
742.0	4.502
742.2	4.470
742.4	4.444
742.6	4.396
742.8	4.370
743.0	4.363
743.2	4.342
743.4	4.256
743.6	4.208
743.8	4.187
744.0	4.201
744.2	4.217
744.4	4.176
744.6	4.024
744.8	4.075
745.0	4.028
745.2	3.968
745.4	4.015
745.6	3.966
745.8	3.837
746.0	3.898
746.2	3.837
746.4	3.833
746.6	3.827
746.8	3.829
747.0	3.788
747.2	3.705
747.4	3.619
747.6	3.633
747.8	3.652
748.0	3.674
748.2	3.692
748.4	3.660
748.6	3.571
748.8	3.531
749.0	3.538
749.2	3.528
749.4	3.513
749.6	3.450
749.8	3.268
750.0	3.187
750.2	3.257
750.4	3.320
750.6	3.392
750.8	3.328
751.0	3.196
751.2	3.111
751.4	3.097
751.6	3.075
751.8	3.039
752.0	3.111
752.2	3.065
752.4	3.019
752.6	2.996
752.8	3.061
753.0	3.030
753.2	3.143
753.4	3.113
753.6	3.012
753.8	2.966
754.0	3.022
754.2	3.005
754.4	2.968
754.6	2.923
754.8	2.812
755.0	2.788
755.2	2.812
755.4	2.790
755.6	2.671
755.8	2.639
756.0	2.673
756.2	2.748
756.4	2.778
756.6	2.737
756.8	2.708
757.0	2.746
757.2	2.777
757.4	2.745
757.6	2.640
757.8	2.530
758.0	2.484
758.2	2.481
758.4	2.497
758.6	2.475
758.8	2.460
759.0	2.472
759.2	2.482
759.4	2.506
759.6	2.476
759.8	2.409
760.0	2.379
760.2	2.368
760.4	2.354
760.6	2.344
760.8	2.320
761.0	2.268
761.2	2.281
761.4	2.284
761.6	2.254
761.8	2.231
762.0	2.207
762.2	2.179
762.4	2.141
762.6	2.152
762.8	2.163
763.0	2.183
763.2	2.110
763.4	2.119
763.6	2.055
763.8	2.034
764.0	2.030
764.2	2.091
764.4	2.080
764.6	2.064
764.8	2.029
765.0	1.970
765.2	1.960
765.4	1.964
765.6	1.941
765.8	1.904
766.0	1.910
766.2	1.934
766.4	2.003
766.6	2.005
766.8	2.013
767.0	1.967
767.2	1.942
767.4	1.876
767.6	1.843
767.8	1.821
768.0	1.838
768.2	1.825
768.4	1.859
768.6	1.850
768.8	1.824
769.0	1.804
769.2	1.773
769.4	1.800
769.6	1.826
769.8	1.840
770.0	1.741
770.2	1.709
770.4	1.671
770.6	1.686
770.8	1.717
771.0	1.662
771.2	1.664
771.4	1.684
771.6	1.714
771.8	1.723
772.0	1.694
772.2	1.580
772.4	1.583
772.6	1.527
772.8	1.545
773.0	1.543
773.2	1.547
773.4	1.490
773.6	1.531
773.8	1.553
774.0	1.622
774.2	1.600
774.4	1.580
774.6	1.482
774.8	1.481
775.0	1.451
775.2	1.494
775.4	1.527
775.6	1.528
775.8	1.499
776.0	1.470
776.2	1.382
776.4	1.373
776.6	1.387
776.8	1.388
777.0	1.381
777.2	1.425
777.4	1.411
777.6	1.467
777.8	1.466
778.0	1.410
778.2	1.382
778.4	1.379
778.6	1.352
778.8	1.385
779.0	1.401
779.2	1.336
779.4	1.304
779.6	1.302
779.8	1.258
780.0	1.268
780.2	1.281
780.4	1.210
780.6	1.226
780.8	1.238
781.0	1.217
781.2	1.219
781.4	1.211
781.6	1.223
781.8	1.289
782.0	1.276
782.2	1.265
782.4	1.191
782.6	1.162
782.8	1.227
783.0	1.267
783.2	1.256
783.4	1.232
783.6	1.174
783.8	1.176
784.0	1.200
784.2	1.230
784.4	1.211
784.6	1.213
784.8	1.267
785.0	1.301
785.2	1.270
785.4	1.221
785.6	1.181
785.8	1.161
786.0	1.205
786.2	1.174
786.4	1.152
786.6	1.096
786.8	1.119
787.0	1.133
787.2	1.144
787.4	1.147
787.6	1.169
787.8	1.171
788.0	1.199
788.2	1.222
788.4	1.210
788.6	1.222
788.8	1.240
789.0	1.229
789.2	1.205
789.4	1.207
789.6	1.213
789.8	1.188
790.0	1.221
790.2	1.228
790.4	1.198
790.6	1.164
790.8	1.157
791.0	1.130
791.2	1.177
791.4	1.229
791.6	1.247
791.8	1.264
792.0	1.256
792.2	1.280
792.4	1.290
792.6	1.266
792.8	1.214
793.0	1.186
793.2	1.190
793.4	1.201
793.6	1.234
793.8	1.244
794.0	1.260
794.2	1.282
794.4	1.289
794.6	1.267
794.8	1.281
795.0	1.278
795.2	1.338
795.4	1.339
795.6	1.332
795.8	1.281
796.0	1.253
796.2	1.248
796.4	1.290
796.6	1.294
796.8	1.310
797.0	1.263
797.2	1.213
797.4	1.172
797.6	1.170
797.8	1.184
798.0	1.254
798.2	1.294
798.4	1.316
798.6	1.302
798.8	1.305
799.0	1.321
799.2	1.391
799.4	1.392
799.6	1.394
799.8	1.370
800.0	1.311

