Sample:	'20211010A(EM)
File name:	G-NI 6.FDS
Run date:	'19:29:19, 06/19/2023
Operator:	Administrator
Comment:	'

Instrument
Model:	F-4700 FL Spectrophotometer
Serial number:	2019-001
ROM Version:	5J24010 00

Instrument parameters
Measurement type:	Wavelength scan
Scan mode:	Emission
Data mode:	Fluorescence
EX WL:	400.0 nm
EM  Start WL:	420.0 nm
EM  End WL:	800.0 nm
Scan speed:	1200 nm/min
Delay:	0.0 s
EX Slit:	10.0 nm
EM Slit:	10.0 nm
PMT Voltage:	500 V
Response:	0.002 s
Corrected spectra:	Off
Shutter control:	On

Processing performed
Savitsky-Golay smoothed
Smoothing order:	3
Number of points:	7
Number of times:	1

Peak integration
Integration method:	Rectangular
Sensitivity:	1
Threshold:	1.000

Peaks
No.	Start(nm)	Apex(nm)	End(nm)	Height(Data)	Valley(nm)	Valley(Data)
1	420.0	535.6	537.4	294.8	537.4	288.5
2	537.4	538.0	538.8	294.7	538.8	291.7
3	538.8	541.2	544.2	295.9	544.2	287.5
4	544.2	545.0	547.4	291.3	547.4	282.9
5	547.4	548.4	557.0	285.4	557.0	260.2
6	557.0	557.8	583.2	263.5	583.2	172.3
7	583.2	583.8	606.8	174.8	606.8	102.3
8	606.8	607.6	636.8	104.2	636.8	46.02
9	636.8	637.2	651.2	47.38	651.2	29.96
10	651.2	651.8	665.0	31.55	665.0	19.24
11	665.0	665.8	669.4	20.32	669.4	16.08
12	669.4	670.2	692.4	18.34	692.4	7.968
13	692.4	693.4	785.0	9.010	785.0	0.581

Data points
nm	Data
420.0	0.420
420.2	0.417
420.4	0.488
420.6	0.566
420.8	0.496
421.0	0.425
421.2	0.416
421.4	0.471
421.6	0.472
421.8	0.575
422.0	0.477
422.2	0.440
422.4	0.415
422.6	0.503
422.8	0.446
423.0	0.456
423.2	0.354
423.4	0.348
423.6	0.387
423.8	0.387
424.0	0.399
424.2	0.406
424.4	0.484
424.6	0.586
424.8	0.583
425.0	0.516
425.2	0.435
425.4	0.391
425.6	0.485
425.8	0.509
426.0	0.420
426.2	0.387
426.4	0.309
426.6	0.439
426.8	0.559
427.0	0.625
427.2	0.629
427.4	0.623
427.6	0.595
427.8	0.533
428.0	0.532
428.2	0.485
428.4	0.510
428.6	0.549
428.8	0.573
429.0	0.571
429.2	0.610
429.4	0.560
429.6	0.480
429.8	0.440
430.0	0.351
430.2	0.409
430.4	0.396
430.6	0.460
430.8	0.516
431.0	0.625
431.2	0.581
431.4	0.503
431.6	0.431
431.8	0.405
432.0	0.381
432.2	0.467
432.4	0.519
432.6	0.516
432.8	0.501
433.0	0.491
433.2	0.383
433.4	0.385
433.6	0.515
433.8	0.583
434.0	0.558
434.2	0.607
434.4	0.530
434.6	0.498
434.8	0.575
435.0	0.517
435.2	0.479
435.4	0.478
435.6	0.384
435.8	0.372
436.0	0.398
436.2	0.359
436.4	0.387
436.6	0.371
436.8	0.369
437.0	0.340
437.2	0.377
437.4	0.370
437.6	0.441
437.8	0.517
438.0	0.536
438.2	0.555
438.4	0.636
438.6	0.595
438.8	0.582
439.0	0.618
439.2	0.568
439.4	0.596
439.6	0.554
439.8	0.477
440.0	0.402
440.2	0.596
440.4	0.715
440.6	0.733
440.8	0.617
441.0	0.402
441.2	0.294
441.4	0.434
441.6	0.551
441.8	0.597
442.0	0.574
442.2	0.423
442.4	0.383
442.6	0.381
442.8	0.432
443.0	0.450
443.2	0.464
443.4	0.466
443.6	0.406
443.8	0.356
444.0	0.313
444.2	0.331
444.4	0.460
444.6	0.599
444.8	0.596
445.0	0.587
445.2	0.482
445.4	0.366
445.6	0.336
445.8	0.385
446.0	0.504
446.2	0.578
446.4	0.633
446.6	0.596
446.8	0.470
447.0	0.427
447.2	0.437
447.4	0.407
447.6	0.635
447.8	0.654
448.0	0.611
448.2	0.570
448.4	0.512
448.6	0.478
448.8	0.560
449.0	0.564
449.2	0.565
449.4	0.512
449.6	0.553
449.8	0.494
450.0	0.441
450.2	0.479
450.4	0.556
450.6	0.611
450.8	0.740
451.0	0.699
451.2	0.613
451.4	0.502
451.6	0.466
451.8	0.469
452.0	0.471
452.2	0.556
452.4	0.589
452.6	0.602
452.8	0.502
453.0	0.525
453.2	0.405
453.4	0.437
453.6	0.401
453.8	0.387
454.0	0.345
454.2	0.429
454.4	0.436
454.6	0.528
454.8	0.554
455.0	0.560
455.2	0.581
455.4	0.545
455.6	0.490
455.8	0.442
456.0	0.330
456.2	0.370
456.4	0.502
456.6	0.562
456.8	0.522
457.0	0.475
457.2	0.320
457.4	0.395
457.6	0.423
457.8	0.421
458.0	0.337
458.2	0.333
458.4	0.230
458.6	0.310
458.8	0.363
459.0	0.389
459.2	0.376
459.4	0.367
459.6	0.387
459.8	0.557
460.0	0.642
460.2	0.669
460.4	0.577
460.6	0.559
460.8	0.549
461.0	0.560
461.2	0.552
461.4	0.538
461.6	0.496
461.8	0.517
462.0	0.556
462.2	0.597
462.4	0.566
462.6	0.492
462.8	0.469
463.0	0.487
463.2	0.564
463.4	0.663
463.6	0.583
463.8	0.616
464.0	0.625
464.2	0.719
464.4	0.715
464.6	0.702
464.8	0.593
465.0	0.629
465.2	0.646
465.4	0.721
465.6	0.677
465.8	0.681
466.0	0.606
466.2	0.475
466.4	0.429
466.6	0.479
466.8	0.531
467.0	0.815
467.2	0.903
467.4	0.838
467.6	0.926
467.8	0.964
468.0	1.020
468.2	1.067
468.4	0.987
468.6	0.797
468.8	0.807
469.0	0.777
469.2	0.766
469.4	0.822
469.6	0.870
469.8	0.815
470.0	0.797
470.2	0.782
470.4	0.790
470.6	0.839
470.8	0.910
471.0	0.926
471.2	0.970
471.4	1.053
471.6	1.213
471.8	1.133
472.0	1.240
472.2	1.277
472.4	1.252
472.6	1.412
472.8	1.422
473.0	1.336
473.2	1.415
473.4	1.419
473.6	1.389
473.8	1.473
474.0	1.431
474.2	1.403
474.4	1.439
474.6	1.624
474.8	1.804
475.0	1.837
475.2	1.989
475.4	1.769
475.6	1.721
475.8	1.705
476.0	1.934
476.2	2.113
476.4	2.343
476.6	2.256
476.8	2.388
477.0	2.279
477.2	2.431
477.4	2.405
477.6	2.519
477.8	2.567
478.0	2.694
478.2	2.649
478.4	2.682
478.6	2.639
478.8	2.971
479.0	3.162
479.2	3.387
479.4	3.467
479.6	3.458
479.8	3.397
480.0	3.678
480.2	3.634
480.4	3.859
480.6	3.910
480.8	4.030
481.0	4.382
481.2	4.776
481.4	4.762
481.6	4.773
481.8	4.525
482.0	4.730
482.2	5.120
482.4	5.407
482.6	5.523
482.8	5.608
483.0	5.836
483.2	5.892
483.4	6.231
483.6	6.539
483.8	6.937
484.0	7.357
484.2	7.985
484.4	7.950
484.6	8.078
484.8	8.049
485.0	8.278
485.2	8.587
485.4	8.888
485.6	9.097
485.8	9.654
486.0	9.783
486.2	9.966
486.4	10.07
486.6	10.22
486.8	11.00
487.0	11.58
487.2	11.55
487.4	12.12
487.6	12.58
487.8	13.13
488.0	14.06
488.2	14.35
488.4	14.52
488.6	14.59
488.8	14.50
489.0	14.82
489.2	15.51
489.4	16.87
489.6	17.68
489.8	18.03
490.0	17.80
490.2	18.60
490.4	19.26
490.6	20.11
490.8	20.44
491.0	21.29
491.2	21.29
491.4	22.36
491.6	22.76
491.8	23.39
492.0	24.32
492.2	25.15
492.4	25.68
492.6	26.10
492.8	26.59
493.0	27.02
493.2	27.91
493.4	28.71
493.6	29.86
493.8	30.68
494.0	32.14
494.2	32.86
494.4	33.81
494.6	34.60
494.8	35.78
495.0	35.93
495.2	37.15
495.4	38.19
495.6	39.73
495.8	40.67
496.0	42.14
496.2	41.97
496.4	42.81
496.6	43.96
496.8	44.82
497.0	45.06
497.2	46.29
497.4	47.02
497.6	48.18
497.8	49.96
498.0	51.53
498.2	52.20
498.4	53.53
498.6	54.79
498.8	56.47
499.0	57.91
499.2	59.58
499.4	60.48
499.6	61.74
499.8	62.69
500.0	64.91
500.2	66.32
500.4	67.11
500.6	68.43
500.8	69.36
501.0	70.29
501.2	72.86
501.4	74.76
501.6	77.32
501.8	78.80
502.0	78.67
502.2	79.98
502.4	80.61
502.6	82.08
502.8	85.34
503.0	87.71
503.2	89.16
503.4	90.41
503.6	90.46
503.8	91.32
504.0	91.90
504.2	93.38
504.4	95.22
504.6	97.10
504.8	100.4
505.0	103.0
505.2	105.4
505.4	107.2
505.6	108.6
505.8	110.7
506.0	112.5
506.2	114.2
506.4	116.5
506.6	118.3
506.8	118.9
507.0	120.1
507.2	120.3
507.4	122.6
507.6	125.6
507.8	128.3
508.0	130.4
508.2	133.0
508.4	134.7
508.6	136.8
508.8	138.2
509.0	138.6
509.2	139.2
509.4	141.3
509.6	143.2
509.8	145.1
510.0	146.2
510.2	147.7
510.4	149.3
510.6	152.0
510.8	155.2
511.0	157.3
511.2	159.4
511.4	160.4
511.6	160.6
511.8	161.9
512.0	164.8
512.2	167.3
512.4	169.2
512.6	168.6
512.8	168.3
513.0	170.0
513.2	172.6
513.4	176.7
513.6	178.7
513.8	180.2
514.0	182.0
514.2	185.1
514.4	186.4
514.6	188.0
514.8	189.0
515.0	190.4
515.2	192.9
515.4	197.1
515.6	200.0
515.8	201.7
516.0	200.7
516.2	199.5
516.4	199.9
516.6	201.1
516.8	205.2
517.0	207.9
517.2	209.2
517.4	211.3
517.6	213.7
517.8	215.8
518.0	218.6
518.2	218.3
518.4	218.9
518.6	219.6
518.8	220.9
519.0	222.0
519.2	223.9
519.4	224.4
519.6	227.8
519.8	230.4
520.0	232.2
520.2	231.8
520.4	232.7
520.6	233.4
520.8	235.9
521.0	237.9
521.2	239.9
521.4	240.1
521.6	241.5
521.8	243.0
522.0	243.5
522.2	243.8
522.4	245.1
522.6	245.1
522.8	246.6
523.0	249.7
523.2	252.6
523.4	255.5
523.6	257.5
523.8	257.2
524.0	256.4
524.2	255.5
524.4	254.5
524.6	256.4
524.8	258.4
525.0	261.1
525.2	263.9
525.4	265.4
525.6	265.4
525.8	267.1
526.0	266.2
526.2	267.2
526.4	269.0
526.6	268.0
526.8	267.6
527.0	268.2
527.2	269.0
527.4	271.2
527.6	272.9
527.8	270.9
528.0	271.5
528.2	271.3
528.4	275.2
528.6	274.9
528.8	275.9
529.0	275.6
529.2	276.7
529.4	276.9
529.6	280.0
529.8	280.0
530.0	281.7
530.2	280.8
530.4	282.4
530.6	282.0
530.8	282.9
531.0	282.8
531.2	283.6
531.4	282.9
531.6	285.3
531.8	284.7
532.0	286.6
532.2	285.7
532.4	285.5
532.6	285.2
532.8	285.8
533.0	284.3
533.2	287.3
533.4	289.3
533.6	291.1
533.8	292.3
534.0	292.6
534.2	289.4
534.4	291.3
534.6	291.7
534.8	293.0
535.0	292.3
535.2	293.3
535.4	292.7
535.6	294.8
535.8	294.6
536.0	293.2
536.2	290.2
536.4	291.7
536.6	291.7
536.8	291.8
537.0	291.1
537.2	289.0
537.4	288.5
537.6	292.1
537.8	294.3
538.0	294.7
538.2	294.5
538.4	293.5
538.6	292.8
538.8	291.7
539.0	292.3
539.2	291.9
539.4	291.8
539.6	293.2
539.8	292.4
540.0	291.9
540.2	292.8
540.4	293.2
540.6	292.8
540.8	294.4
541.0	294.3
541.2	295.9
541.4	295.8
541.6	293.9
541.8	293.5
542.0	293.5
542.2	293.7
542.4	292.9
542.6	291.8
542.8	289.9
543.0	289.7
543.2	291.3
543.4	291.9
543.6	289.8
543.8	289.3
544.0	288.8
544.2	287.5
544.4	288.9
544.6	290.0
544.8	290.9
545.0	291.3
545.2	290.8
545.4	287.8
545.6	286.9
545.8	287.3
546.0	289.9
546.2	289.8
546.4	289.6
546.6	286.6
546.8	285.1
547.0	283.0
547.2	283.0
547.4	282.9
547.6	283.0
547.8	283.6
548.0	284.5
548.2	285.2
548.4	285.4
548.6	285.4
548.8	283.5
549.0	281.5
549.2	278.6
549.4	278.0
549.6	278.0
549.8	280.2
550.0	282.6
550.2	282.0
550.4	279.2
550.6	275.9
550.8	273.7
551.0	274.2
551.2	277.0
551.4	277.5
551.6	276.9
551.8	274.2
552.0	273.4
552.2	272.2
552.4	273.2
552.6	272.6
552.8	271.5
553.0	270.4
553.2	271.1
553.4	271.2
553.6	271.8
553.8	271.6
554.0	272.1
554.2	271.6
554.4	269.4
554.6	268.5
554.8	266.6
555.0	267.2
555.2	268.3
555.4	268.5
555.6	268.0
555.8	267.0
556.0	265.8
556.2	265.4
556.4	262.6
556.6	261.6
556.8	261.4
557.0	260.2
557.2	261.5
557.4	261.7
557.6	262.8
557.8	263.5
558.0	262.7
558.2	259.9
558.4	259.8
558.6	258.3
558.8	258.8
559.0	257.8
559.2	257.4
559.4	254.5
559.6	254.4
559.8	253.9
560.0	253.2
560.2	253.3
560.4	253.8
560.6	253.2
560.8	252.3
561.0	251.0
561.2	249.3
561.4	247.5
561.6	247.6
561.8	247.1
562.0	247.2
562.2	246.4
562.4	246.1
562.6	245.0
562.8	244.9
563.0	244.1
563.2	244.4
563.4	243.8
563.6	243.0
563.8	241.5
564.0	240.7
564.2	238.8
564.4	237.2
564.6	235.6
564.8	234.2
565.0	234.9
565.2	236.1
565.4	236.1
565.6	235.6
565.8	233.1
566.0	230.6
566.2	229.7
566.4	229.5
566.6	230.4
566.8	231.0
567.0	230.3
567.2	229.5
567.4	228.1
567.6	228.2
567.8	228.9
568.0	228.7
568.2	228.3
568.4	227.6
568.6	225.8
568.8	225.9
569.0	225.3
569.2	223.2
569.4	222.7
569.6	220.7
569.8	220.3
570.0	219.7
570.2	218.9
570.4	217.9
570.6	217.7
570.8	216.2
571.0	217.0
571.2	215.1
571.4	214.5
571.6	213.6
571.8	213.4
572.0	212.7
572.2	213.8
572.4	214.1
572.6	213.4
572.8	211.2
573.0	210.4
573.2	210.0
573.4	210.0
573.6	210.2
573.8	208.9
574.0	206.8
574.2	205.7
574.4	206.2
574.6	206.5
574.8	206.1
575.0	204.4
575.2	202.8
575.4	200.8
575.6	200.8
575.8	200.0
576.0	199.4
576.2	198.1
576.4	195.4
576.6	194.3
576.8	194.2
577.0	193.3
577.2	192.5
577.4	193.6
577.6	192.4
577.8	194.0
578.0	194.0
578.2	192.5
578.4	189.8
578.6	189.1
578.8	188.8
579.0	189.8
579.2	190.2
579.4	189.3
579.6	187.9
579.8	186.3
580.0	186.3
580.2	185.5
580.4	184.7
580.6	184.6
580.8	184.6
581.0	182.8
581.2	181.1
581.4	179.5
581.6	178.5
581.8	178.2
582.0	177.7
582.2	176.1
582.4	174.0
582.6	173.2
582.8	172.7
583.0	172.7
583.2	172.3
583.4	173.8
583.6	174.6
583.8	174.8
584.0	172.9
584.2	171.9
584.4	169.5
584.6	169.8
584.8	168.9
585.0	168.4
585.2	166.2
585.4	166.3
585.6	164.9
585.8	165.2
586.0	165.0
586.2	164.9
586.4	163.1
586.6	163.1
586.8	162.7
587.0	161.7
587.2	161.9
587.4	160.8
587.6	159.9
587.8	158.3
588.0	158.1
588.2	157.9
588.4	157.6
588.6	156.5
588.8	156.2
589.0	154.9
589.2	154.4
589.4	154.3
589.6	153.4
589.8	151.9
590.0	151.8
590.2	151.6
590.4	151.4
590.6	150.4
590.8	149.2
591.0	147.5
591.2	147.7
591.4	147.0
591.6	147.0
591.8	146.2
592.0	145.5
592.2	143.2
592.4	142.8
592.6	142.6
592.8	142.9
593.0	142.6
593.2	142.9
593.4	141.8
593.6	140.8
593.8	141.4
594.0	141.5
594.2	140.7
594.4	139.7
594.6	138.0
594.8	136.2
595.0	137.3
595.2	136.1
595.4	135.7
595.6	134.7
595.8	132.0
596.0	130.4
596.2	131.5
596.4	131.7
596.6	132.6
596.8	131.4
597.0	129.3
597.2	127.8
597.4	127.4
597.6	128.3
597.8	129.6
598.0	128.8
598.2	128.0
598.4	127.3
598.6	127.4
598.8	127.9
599.0	127.0
599.2	125.1
599.4	123.7
599.6	123.1
599.8	122.2
600.0	121.8
600.2	119.3
600.4	117.6
600.6	118.2
600.8	118.4
601.0	117.6
601.2	118.3
601.4	118.0
601.6	117.5
601.8	117.5
602.0	115.9
602.2	113.9
602.4	113.3
602.6	112.8
602.8	113.5
603.0	114.0
603.2	114.0
603.4	112.2
603.6	112.2
603.8	111.4
604.0	110.5
604.2	109.6
604.4	109.6
604.6	108.4
604.8	108.9
605.0	109.3
605.2	109.2
605.4	108.7
605.6	108.2
605.8	106.4
606.0	104.8
606.2	103.8
606.4	103.5
606.6	102.4
606.8	102.3
607.0	102.3
607.2	103.7
607.4	104.2
607.6	104.2
607.8	103.3
608.0	102.5
608.2	101.4
608.4	100.8
608.6	99.22
608.8	98.86
609.0	98.32
609.2	96.95
609.4	96.47
609.6	95.64
609.8	94.94
610.0	95.84
610.2	95.86
610.4	94.93
610.6	93.93
610.8	93.38
611.0	93.50
611.2	93.93
611.4	94.58
611.6	94.36
611.8	92.73
612.0	90.92
612.2	90.65
612.4	89.59
612.6	88.70
612.8	89.55
613.0	89.82
613.2	88.53
613.4	87.75
613.6	85.98
613.8	84.45
614.0	86.15
614.2	87.14
614.4	85.67
614.6	84.48
614.8	83.34
615.0	83.34
615.2	85.02
615.4	85.70
615.6	85.17
615.8	84.39
616.0	83.65
616.2	82.44
616.4	82.11
616.6	81.37
616.8	81.33
617.0	81.03
617.2	80.81
617.4	80.24
617.6	79.95
617.8	79.38
618.0	79.44
618.2	78.55
618.4	78.09
618.6	77.84
618.8	77.08
619.0	75.98
619.2	76.24
619.4	75.96
619.6	75.79
619.8	74.62
620.0	73.91
620.2	73.39
620.4	73.99
620.6	74.30
620.8	74.21
621.0	73.23
621.2	73.34
621.4	74.21
621.6	74.23
621.8	73.49
622.0	72.93
622.2	71.02
622.4	69.82
622.6	68.90
622.8	67.62
623.0	67.57
623.2	68.50
623.4	68.27
623.6	68.60
623.8	68.33
624.0	68.13
624.2	68.20
624.4	68.02
624.6	66.41
624.8	65.89
625.0	64.67
625.2	64.18
625.4	64.52
625.6	65.05
625.8	64.71
626.0	64.87
626.2	63.61
626.4	62.73
626.6	62.67
626.8	62.33
627.0	61.82
627.2	60.95
627.4	60.36
627.6	60.14
627.8	59.94
628.0	59.94
628.2	59.40
628.4	58.65
628.6	58.76
628.8	58.49
629.0	58.81
629.2	59.31
629.4	59.49
629.6	59.28
629.8	59.13
630.0	58.28
630.2	57.17
630.4	56.48
630.6	56.76
630.8	56.46
631.0	55.62
631.2	55.08
631.4	54.22
631.6	54.49
631.8	54.89
632.0	55.09
632.2	54.27
632.4	54.30
632.6	53.76
632.8	53.24
633.0	52.35
633.2	52.88
633.4	52.16
633.6	52.95
633.8	52.67
634.0	51.68
634.2	50.51
634.4	50.85
634.6	50.10
634.8	50.51
635.0	50.34
635.2	49.55
635.4	49.45
635.6	49.37
635.8	48.62
636.0	48.41
636.2	47.67
636.4	46.43
636.6	46.35
636.8	46.02
637.0	46.54
637.2	47.38
637.4	47.22
637.6	46.87
637.8	46.72
638.0	46.84
638.2	46.96
638.4	45.80
638.6	44.67
638.8	44.49
639.0	45.10
639.2	45.75
639.4	45.32
639.6	44.52
639.8	43.89
640.0	43.58
640.2	43.35
640.4	42.81
640.6	41.84
640.8	40.91
641.0	40.48
641.2	40.31
641.4	40.33
641.6	40.43
641.8	40.67
642.0	40.38
642.2	39.70
642.4	39.07
642.6	38.85
642.8	38.62
643.0	39.02
643.2	39.15
643.4	38.57
643.6	38.26
643.8	38.23
644.0	37.77
644.2	37.73
644.4	37.53
644.6	37.37
644.8	37.01
645.0	36.28
645.2	36.37
645.4	36.42
645.6	36.88
645.8	36.94
646.0	36.83
646.2	36.39
646.4	35.85
646.6	35.04
646.8	34.84
647.0	34.31
647.2	33.97
647.4	34.55
647.6	34.21
647.8	34.26
648.0	33.85
648.2	33.52
648.4	33.01
648.6	33.31
648.8	33.41
649.0	33.66
649.2	33.29
649.4	32.57
649.6	32.03
649.8	32.02
650.0	31.43
650.2	31.34
650.4	31.35
650.6	30.88
650.8	30.65
651.0	30.39
651.2	29.96
651.4	30.39
651.6	30.97
651.8	31.55
652.0	31.33
652.2	30.42
652.4	29.62
652.6	28.87
652.8	28.39
653.0	28.79
653.2	28.76
653.4	28.64
653.6	28.37
653.8	28.29
654.0	28.08
654.2	27.93
654.4	27.75
654.6	27.23
654.8	26.59
655.0	26.63
655.2	26.21
655.4	25.84
655.6	26.17
655.8	26.03
656.0	25.93
656.2	26.06
656.4	26.13
656.6	26.10
656.8	26.84
657.0	26.41
657.2	26.13
657.4	25.89
657.6	25.49
657.8	24.99
658.0	25.58
658.2	25.44
658.4	25.37
658.6	24.91
658.8	24.25
659.0	23.78
659.2	24.28
659.4	24.51
659.6	24.52
659.8	24.55
660.0	24.22
660.2	23.54
660.4	23.26
660.6	22.93
660.8	22.71
661.0	22.96
661.2	22.96
661.4	23.09
661.6	23.03
661.8	22.83
662.0	22.26
662.2	21.23
662.4	20.90
662.6	21.30
662.8	21.47
663.0	21.56
663.2	21.51
663.4	20.97
663.6	20.44
663.8	19.80
664.0	19.88
664.2	19.88
664.4	20.15
664.6	20.32
664.8	19.88
665.0	19.24
665.2	19.65
665.4	19.89
665.6	20.24
665.8	20.32
666.0	20.06
666.2	19.83
666.4	19.52
666.6	18.98
666.8	18.60
667.0	18.28
667.2	18.34
667.4	18.95
667.6	19.37
667.8	18.87
668.0	18.41
668.2	18.02
668.4	17.63
668.6	17.96
668.8	17.83
669.0	17.01
669.2	16.37
669.4	16.08
669.6	16.30
669.8	17.27
670.0	17.99
670.2	18.34
670.4	18.07
670.6	16.97
670.8	16.30
671.0	15.91
671.2	15.86
671.4	15.99
671.6	16.45
671.8	16.32
672.0	16.38
672.2	16.52
672.4	16.08
672.6	15.31
672.8	15.10
673.0	14.72
673.2	14.91
673.4	15.73
673.6	15.63
673.8	15.43
674.0	15.25
674.2	14.52
674.4	14.36
674.6	14.20
674.8	13.99
675.0	14.20
675.2	14.28
675.4	14.18
675.6	14.32
675.8	14.17
676.0	14.25
676.2	14.07
676.4	14.04
676.6	13.83
676.8	13.67
677.0	13.53
677.2	13.39
677.4	13.33
677.6	13.81
677.8	13.70
678.0	13.55
678.2	13.33
678.4	12.92
678.6	12.89
678.8	13.11
679.0	13.13
679.2	13.06
679.4	12.73
679.6	12.20
679.8	12.08
680.0	12.01
680.2	11.95
680.4	11.95
680.6	12.11
680.8	11.82
681.0	11.93
681.2	11.80
681.4	11.62
681.6	11.67
681.8	11.59
682.0	11.40
682.2	11.59
682.4	11.53
682.6	11.50
682.8	11.45
683.0	11.28
683.2	11.13
683.4	11.04
683.6	10.94
683.8	10.71
684.0	10.66
684.2	10.66
684.4	10.44
684.6	10.34
684.8	10.31
685.0	10.13
685.2	10.10
685.4	10.28
685.6	10.55
685.8	10.72
686.0	10.89
686.2	10.85
686.4	10.51
686.6	10.33
686.8	9.992
687.0	9.682
687.2	9.628
687.4	9.678
687.6	9.947
687.8	10.03
688.0	9.752
688.2	9.493
688.4	9.350
688.6	9.052
688.8	9.064
689.0	8.963
689.2	8.714
689.4	8.781
689.6	9.067
689.8	8.949
690.0	8.897
690.2	8.956
690.4	8.952
690.6	8.811
690.8	8.992
691.0	8.924
691.2	8.777
691.4	9.101
691.6	8.873
691.8	8.470
692.0	8.548
692.2	8.374
692.4	7.968
692.6	8.120
692.8	8.179
693.0	8.591
693.2	8.893
693.4	9.010
693.6	8.552
693.8	8.106
694.0	7.902
694.2	7.613
694.4	7.086
694.6	7.274
694.8	7.248
695.0	7.705
695.2	8.030
695.4	7.832
695.6	7.545
695.8	7.338
696.0	7.204
696.2	7.159
696.4	7.356
696.6	7.258
696.8	7.486
697.0	7.480
697.2	7.319
697.4	6.957
697.6	7.141
697.8	7.269
698.0	7.358
698.2	7.158
698.4	7.007
698.6	6.968
698.8	6.851
699.0	6.618
699.2	6.497
699.4	6.467
699.6	6.811
699.8	7.073
700.0	6.868
700.2	6.532
700.4	6.494
700.6	6.366
700.8	6.286
701.0	6.300
701.2	6.417
701.4	6.535
701.6	6.470
701.8	6.523
702.0	6.304
702.2	6.086
702.4	5.986
702.6	5.810
702.8	5.716
703.0	6.276
703.2	6.507
703.4	6.540
703.6	6.504
703.8	6.325
704.0	6.054
704.2	6.067
704.4	5.895
704.6	5.582
704.8	5.635
705.0	5.739
705.2	5.628
705.4	5.449
705.6	5.268
705.8	5.449
706.0	5.736
706.2	5.815
706.4	5.588
706.6	5.364
706.8	5.299
707.0	5.527
707.2	5.421
707.4	5.350
707.6	5.604
707.8	5.843
708.0	5.894
708.2	5.564
708.4	5.117
708.6	4.954
708.8	5.045
709.0	5.028
709.2	5.217
709.4	5.288
709.6	5.423
709.8	5.529
710.0	5.287
710.2	4.965
710.4	5.016
710.6	4.948
710.8	5.245
711.0	5.463
711.2	5.439
711.4	5.391
711.6	5.200
711.8	4.688
712.0	4.753
712.2	4.546
712.4	4.296
712.6	4.335
712.8	4.316
713.0	4.286
713.2	4.532
713.4	4.619
713.6	4.724
713.8	4.731
714.0	4.659
714.2	4.525
714.4	4.413
714.6	4.408
714.8	4.529
715.0	4.375
715.2	4.231
715.4	4.235
715.6	4.220
715.8	3.981
716.0	3.977
716.2	4.054
716.4	4.114
716.6	4.145
716.8	4.269
717.0	4.067
717.2	4.189
717.4	4.179
717.6	4.178
717.8	4.032
718.0	3.852
718.2	3.552
718.4	3.684
718.6	3.786
718.8	3.896
719.0	3.860
719.2	3.770
719.4	3.361
719.6	3.483
719.8	3.685
720.0	3.832
720.2	3.762
720.4	3.996
720.6	3.862
720.8	3.833
721.0	3.876
721.2	3.653
721.4	3.183
721.6	3.340
721.8	3.260
722.0	3.416
722.2	3.632
722.4	3.361
722.6	3.204
722.8	3.478
723.0	3.348
723.2	3.483
723.4	3.530
723.6	3.419
723.8	3.348
724.0	3.398
724.2	3.056
724.4	2.972
724.6	3.054
724.8	3.003
725.0	3.174
725.2	3.346
725.4	3.274
725.6	3.169
725.8	3.047
726.0	2.806
726.2	2.922
726.4	2.862
726.6	2.800
726.8	2.743
727.0	2.817
727.2	2.874
727.4	3.069
727.6	3.016
727.8	3.029
728.0	3.092
728.2	2.976
728.4	2.910
728.6	2.954
728.8	3.061
729.0	3.210
729.2	3.175
729.4	2.836
729.6	2.614
729.8	2.419
730.0	2.549
730.2	2.706
730.4	2.809
730.6	2.848
730.8	2.945
731.0	2.892
731.2	2.950
731.4	2.829
731.6	2.738
731.8	2.713
732.0	2.615
732.2	2.488
732.4	2.240
732.6	2.034
732.8	2.009
733.0	2.185
733.2	2.148
733.4	2.340
733.6	2.422
733.8	2.553
734.0	2.682
734.2	2.806
734.4	2.475
734.6	2.414
734.8	2.455
735.0	2.434
735.2	2.491
735.4	2.455
735.6	2.194
735.8	2.085
736.0	2.208
736.2	2.253
736.4	2.353
736.6	2.542
736.8	2.535
737.0	2.377
737.2	2.144
737.4	2.038
737.6	1.995
737.8	2.047
738.0	1.990
738.2	1.799
738.4	1.765
738.6	2.003
738.8	2.061
739.0	2.205
739.2	2.183
739.4	1.983
739.6	1.954
739.8	1.888
740.0	1.763
740.2	1.818
740.4	1.776
740.6	2.064
740.8	2.095
741.0	2.153
741.2	2.141
741.4	1.913
741.6	1.670
741.8	1.803
742.0	1.679
742.2	1.854
742.4	1.908
742.6	1.997
742.8	2.239
743.0	2.302
743.2	2.160
743.4	1.903
743.6	1.495
743.8	1.402
744.0	1.491
744.2	1.546
744.4	1.566
744.6	1.468
744.8	1.313
745.0	1.196
745.2	1.181
745.4	1.448
745.6	1.645
745.8	1.795
746.0	1.690
746.2	1.621
746.4	1.523
746.6	1.501
746.8	1.597
747.0	1.603
747.2	1.364
747.4	1.371
747.6	1.459
747.8	1.500
748.0	1.589
748.2	1.647
748.4	1.601
748.6	1.649
748.8	1.762
749.0	1.821
749.2	1.765
749.4	1.748
749.6	1.660
749.8	1.503
750.0	1.266
750.2	1.121
750.4	1.297
750.6	1.521
750.8	1.667
751.0	1.681
751.2	1.626
751.4	1.438
751.6	1.475
751.8	1.649
752.0	1.676
752.2	1.451
752.4	1.257
752.6	1.127
752.8	1.114
753.0	1.179
753.2	1.168
753.4	1.136
753.6	1.131
753.8	1.119
754.0	1.204
754.2	1.342
754.4	1.519
754.6	1.720
754.8	1.585
755.0	1.389
755.2	1.280
755.4	1.270
755.6	1.226
755.8	1.182
756.0	1.136
756.2	1.174
756.4	1.491
756.6	1.623
756.8	1.514
757.0	1.423
757.2	1.398
757.4	1.272
757.6	1.421
757.8	1.448
758.0	1.270
758.2	1.094
758.4	1.044
758.6	0.925
758.8	0.991
759.0	1.157
759.2	1.208
759.4	1.199
759.6	1.118
759.8	1.019
760.0	1.060
760.2	1.094
760.4	1.169
760.6	1.198
760.8	1.209
761.0	1.309
761.2	1.326
761.4	1.196
761.6	1.102
761.8	1.020
762.0	1.052
762.2	1.025
762.4	1.049
762.6	0.966
762.8	0.962
763.0	1.066
763.2	1.170
763.4	1.108
763.6	1.137
763.8	1.147
764.0	1.201
764.2	1.150
764.4	1.038
764.6	0.861
764.8	0.834
765.0	0.989
765.2	1.139
765.4	1.178
765.6	0.960
765.8	0.858
766.0	0.777
766.2	0.850
766.4	0.937
766.6	1.023
766.8	1.034
767.0	1.067
767.2	0.909
767.4	0.904
767.6	0.902
767.8	0.894
768.0	0.916
768.2	0.918
768.4	0.895
768.6	0.983
768.8	1.039
769.0	1.082
769.2	0.938
769.4	0.918
769.6	0.831
769.8	0.909
770.0	0.864
770.2	0.933
770.4	0.841
770.6	0.874
770.8	0.838
771.0	0.926
771.2	0.904
771.4	0.843
771.6	0.881
771.8	0.996
772.0	1.034
772.2	0.963
772.4	0.923
772.6	0.839
772.8	0.969
773.0	0.931
773.2	0.851
773.4	0.847
773.6	0.838
773.8	0.910
774.0	0.947
774.2	0.756
774.4	0.797
774.6	0.882
774.8	0.863
775.0	0.862
775.2	0.755
775.4	0.671
775.6	0.735
775.8	0.705
776.0	0.711
776.2	0.831
776.4	0.887
776.6	0.974
776.8	0.967
777.0	0.812
777.2	0.730
777.4	0.769
777.6	0.818
777.8	0.879
778.0	0.857
778.2	0.689
778.4	0.658
778.6	0.618
778.8	0.706
779.0	0.787
779.2	0.794
779.4	0.738
779.6	0.763
779.8	0.819
780.0	0.821
780.2	0.922
780.4	0.952
780.6	0.867
780.8	0.845
781.0	0.787
781.2	0.673
781.4	0.748
781.6	0.846
781.8	0.893
782.0	0.904
782.2	0.786
782.4	0.670
782.6	0.612
782.8	0.592
783.0	0.657
783.2	0.833
783.4	0.936
783.6	1.049
783.8	1.119
784.0	1.099
784.2	1.072
784.4	0.995
784.6	0.795
784.8	0.681
785.0	0.581
785.2	0.622
785.4	0.841
785.6	0.831
785.8	0.848
786.0	0.774
786.2	0.715
786.4	0.813
786.6	1.073
786.8	1.088
787.0	1.229
787.2	1.180
787.4	1.082
787.6	1.059
787.8	0.963
788.0	0.947
788.2	1.018
788.4	1.042
788.6	1.074
788.8	1.080
789.0	1.086
789.2	1.115
789.4	1.094
789.6	1.091
789.8	1.113
790.0	1.035
790.2	1.150
790.4	1.200
790.6	1.305
790.8	1.389
791.0	1.333
791.2	1.183
791.4	1.136
791.6	1.129
791.8	1.107
792.0	1.221
792.2	1.299
792.4	1.429
792.6	1.438
792.8	1.373
793.0	1.258
793.2	1.362
793.4	1.435
793.6	1.571
793.8	1.503
794.0	1.231
794.2	1.232
794.4	1.410
794.6	1.530
794.8	1.669
795.0	1.611
795.2	1.428
795.4	1.412
795.6	1.537
795.8	1.692
796.0	1.691
796.2	1.634
796.4	1.457
796.6	1.372
796.8	1.490
797.0	1.743
797.2	1.777
797.4	1.921
797.6	1.894
797.8	1.968
798.0	2.133
798.2	2.006
798.4	1.946
798.6	1.835
798.8	1.760
799.0	1.625
799.2	1.787
799.4	1.774
799.6	2.003
799.8	1.977
800.0	1.431

