Sample:	'20211010A(EM)
File name:	G-NI 9.FDS
Run date:	'19:43:28, 06/19/2023
Operator:	Administrator
Comment:	'

Instrument
Model:	F-4700 FL Spectrophotometer
Serial number:	2019-001
ROM Version:	5J24010 00

Instrument parameters
Measurement type:	Wavelength scan
Scan mode:	Emission
Data mode:	Fluorescence
EX WL:	400.0 nm
EM  Start WL:	420.0 nm
EM  End WL:	800.0 nm
Scan speed:	1200 nm/min
Delay:	0.0 s
EX Slit:	10.0 nm
EM Slit:	10.0 nm
PMT Voltage:	500 V
Response:	0.002 s
Corrected spectra:	Off
Shutter control:	On

Processing performed
Savitsky-Golay smoothed
Smoothing order:	3
Number of points:	7
Number of times:	1

Peak integration
Integration method:	Rectangular
Sensitivity:	1
Threshold:	1.000

Peaks
No.	Start(nm)	Apex(nm)	End(nm)	Height(Data)	Valley(nm)	Valley(Data)
1	420.0	533.6	534.4	175.2	534.4	172.9
2	534.4	539.0	539.8	179.2	539.8	174.5
3	539.8	540.4	541.8	178.5	541.8	176.3
4	541.8	542.6	543.2	179.0	543.2	176.2
5	543.2	544.0	544.8	179.7	544.8	174.3
6	544.8	545.4	546.8	177.5	546.8	173.8
7	546.8	547.4	550.0	177.2	550.0	170.0
8	550.0	550.4	555.6	171.7	555.6	162.7
9	555.6	556.4	558.0	165.7	558.0	159.2
10	558.0	559.0	560.4	161.1	560.4	155.9
11	560.4	560.8	622.0	159.6	622.0	46.47
12	622.0	622.6	638.0	48.65	638.0	29.42
13	638.0	638.6	678.4	31.19	678.4	8.516
14	678.4	679.6	776.0	9.759	776.0	0.331

Data points
nm	Data
420.0	0.532
420.2	0.457
420.4	0.405
420.6	0.382
420.8	0.451
421.0	0.431
421.2	0.420
421.4	0.431
421.6	0.429
421.8	0.385
422.0	0.379
422.2	0.452
422.4	0.451
422.6	0.390
422.8	0.378
423.0	0.298
423.2	0.220
423.4	0.338
423.6	0.359
423.8	0.282
424.0	0.386
424.2	0.364
424.4	0.355
424.6	0.399
424.8	0.310
425.0	0.169
425.2	0.225
425.4	0.235
425.6	0.276
425.8	0.394
426.0	0.365
426.2	0.364
426.4	0.434
426.6	0.468
426.8	0.422
427.0	0.490
427.2	0.366
427.4	0.347
427.6	0.409
427.8	0.402
428.0	0.297
428.2	0.231
428.4	0.180
428.6	0.209
428.8	0.371
429.0	0.472
429.2	0.439
429.4	0.359
429.6	0.329
429.8	0.329
430.0	0.360
430.2	0.411
430.4	0.405
430.6	0.408
430.8	0.395
431.0	0.487
431.2	0.485
431.4	0.525
431.6	0.488
431.8	0.475
432.0	0.396
432.2	0.423
432.4	0.391
432.6	0.459
432.8	0.437
433.0	0.489
433.2	0.415
433.4	0.345
433.6	0.295
433.8	0.357
434.0	0.349
434.2	0.396
434.4	0.385
434.6	0.286
434.8	0.282
435.0	0.317
435.2	0.403
435.4	0.439
435.6	0.522
435.8	0.401
436.0	0.361
436.2	0.282
436.4	0.252
436.6	0.225
436.8	0.320
437.0	0.267
437.2	0.326
437.4	0.333
437.6	0.374
437.8	0.423
438.0	0.450
438.2	0.365
438.4	0.312
438.6	0.293
438.8	0.263
439.0	0.259
439.2	0.269
439.4	0.189
439.6	0.172
439.8	0.297
440.0	0.286
440.2	0.360
440.4	0.344
440.6	0.341
440.8	0.334
441.0	0.411
441.2	0.350
441.4	0.393
441.6	0.383
441.8	0.434
442.0	0.403
442.2	0.364
442.4	0.208
442.6	0.275
442.8	0.431
443.0	0.492
443.2	0.490
443.4	0.405
443.6	0.282
443.8	0.316
444.0	0.450
444.2	0.472
444.4	0.442
444.6	0.393
444.8	0.346
445.0	0.374
445.2	0.380
445.4	0.339
445.6	0.325
445.8	0.344
446.0	0.291
446.2	0.434
446.4	0.451
446.6	0.461
446.8	0.448
447.0	0.434
447.2	0.313
447.4	0.321
447.6	0.238
447.8	0.187
448.0	0.221
448.2	0.346
448.4	0.418
448.6	0.381
448.8	0.348
449.0	0.260
449.2	0.229
449.4	0.238
449.6	0.321
449.8	0.327
450.0	0.388
450.2	0.375
450.4	0.342
450.6	0.292
450.8	0.334
451.0	0.412
451.2	0.441
451.4	0.429
451.6	0.331
451.8	0.204
452.0	0.195
452.2	0.230
452.4	0.280
452.6	0.336
452.8	0.367
453.0	0.383
453.2	0.413
453.4	0.351
453.6	0.312
453.8	0.282
454.0	0.331
454.2	0.339
454.4	0.312
454.6	0.238
454.8	0.180
455.0	0.178
455.2	0.230
455.4	0.256
455.6	0.256
455.8	0.224
456.0	0.294
456.2	0.330
456.4	0.433
456.6	0.460
456.8	0.545
457.0	0.532
457.2	0.559
457.4	0.422
457.6	0.373
457.8	0.298
458.0	0.316
458.2	0.358
458.4	0.462
458.6	0.440
458.8	0.381
459.0	0.327
459.2	0.326
459.4	0.437
459.6	0.570
459.8	0.505
460.0	0.362
460.2	0.227
460.4	0.203
460.6	0.243
460.8	0.355
461.0	0.326
461.2	0.336
461.4	0.324
461.6	0.334
461.8	0.428
462.0	0.484
462.2	0.415
462.4	0.355
462.6	0.308
462.8	0.316
463.0	0.420
463.2	0.452
463.4	0.469
463.6	0.432
463.8	0.411
464.0	0.399
464.2	0.409
464.4	0.374
464.6	0.370
464.8	0.318
465.0	0.350
465.2	0.457
465.4	0.572
465.6	0.583
465.8	0.522
466.0	0.442
466.2	0.404
466.4	0.452
466.6	0.478
466.8	0.425
467.0	0.365
467.2	0.427
467.4	0.442
467.6	0.548
467.8	0.490
468.0	0.379
468.2	0.356
468.4	0.345
468.6	0.359
468.8	0.441
469.0	0.413
469.2	0.424
469.4	0.499
469.6	0.460
469.8	0.534
470.0	0.574
470.2	0.612
470.4	0.600
470.6	0.578
470.8	0.489
471.0	0.517
471.2	0.509
471.4	0.588
471.6	0.609
471.8	0.611
472.0	0.660
472.2	0.788
472.4	0.703
472.6	0.662
472.8	0.624
473.0	0.654
473.2	0.796
473.4	0.864
473.6	0.794
473.8	0.692
474.0	0.638
474.2	0.588
474.4	0.657
474.6	0.672
474.8	0.803
475.0	0.851
475.2	0.951
475.4	0.928
475.6	0.962
475.8	0.976
476.0	1.010
476.2	1.007
476.4	1.049
476.6	1.012
476.8	0.942
477.0	0.946
477.2	0.947
477.4	1.133
477.6	1.107
477.8	1.245
478.0	1.332
478.2	1.476
478.4	1.545
478.6	1.502
478.8	1.377
479.0	1.464
479.2	1.474
479.4	1.559
479.6	1.696
479.8	1.700
480.0	1.834
480.2	1.858
480.4	1.995
480.6	2.102
480.8	2.208
481.0	2.204
481.2	2.116
481.4	1.964
481.6	2.086
481.8	2.122
482.0	2.254
482.2	2.415
482.4	2.528
482.6	2.572
482.8	2.513
483.0	2.456
483.2	2.623
483.4	2.918
483.6	3.117
483.8	3.287
484.0	3.247
484.2	3.310
484.4	3.404
484.6	3.459
484.8	3.641
485.0	3.849
485.2	4.088
485.4	4.379
485.6	4.543
485.8	4.656
486.0	4.679
486.2	4.714
486.4	4.750
486.6	4.820
486.8	4.825
487.0	5.068
487.2	4.983
487.4	5.398
487.6	5.832
487.8	6.336
488.0	6.760
488.2	7.009
488.4	6.765
488.6	6.929
488.8	7.116
489.0	7.457
489.2	7.905
489.4	8.117
489.6	8.104
489.8	8.594
490.0	8.929
490.2	9.127
490.4	9.152
490.6	9.157
490.8	9.432
491.0	9.940
491.2	10.28
491.4	10.77
491.6	11.12
491.8	11.77
492.0	12.03
492.2	12.11
492.4	11.88
492.6	12.26
492.8	12.50
493.0	13.31
493.2	14.02
493.4	14.73
493.6	14.91
493.8	15.40
494.0	15.60
494.2	16.35
494.4	16.87
494.6	17.73
494.8	17.79
495.0	18.18
495.2	18.55
495.4	18.95
495.6	19.56
495.8	20.65
496.0	21.16
496.2	21.64
496.4	22.10
496.6	21.81
496.8	22.57
497.0	23.38
497.2	24.33
497.4	24.90
497.6	25.77
497.8	26.00
498.0	26.63
498.2	27.69
498.4	28.44
498.6	29.22
498.8	30.20
499.0	30.61
499.2	31.28
499.4	32.18
499.6	32.65
499.8	33.63
500.0	34.51
500.2	34.54
500.4	36.03
500.6	36.16
500.8	36.29
501.0	36.91
501.2	37.82
501.4	38.57
501.6	40.09
501.8	41.49
502.0	42.85
502.2	43.96
502.4	44.32
502.6	43.84
502.8	44.54
503.0	45.87
503.2	47.64
503.4	49.41
503.6	50.78
503.8	51.69
504.0	52.63
504.2	52.73
504.4	53.13
504.6	53.39
504.8	54.70
505.0	56.50
505.2	58.07
505.4	59.52
505.6	60.29
505.8	60.10
506.0	60.16
506.2	61.19
506.4	63.23
506.6	64.73
506.8	65.61
507.0	65.90
507.2	66.43
507.4	68.14
507.6	70.39
507.8	71.89
508.0	72.55
508.2	73.56
508.4	73.59
508.6	74.61
508.8	75.87
509.0	77.24
509.2	78.25
509.4	80.26
509.6	80.66
509.8	81.54
510.0	82.23
510.2	83.23
510.4	84.46
510.6	85.85
510.8	86.92
511.0	87.82
511.2	88.79
511.4	89.84
511.6	91.92
511.8	92.88
512.0	94.21
512.2	94.95
512.4	95.16
512.6	95.06
512.8	96.58
513.0	98.41
513.2	99.76
513.4	101.1
513.6	102.0
513.8	102.0
514.0	103.1
514.2	105.6
514.4	106.8
514.6	108.3
514.8	108.7
515.0	109.2
515.2	109.6
515.4	110.9
515.6	113.1
515.8	114.3
516.0	114.4
516.2	115.8
516.4	117.3
516.6	118.6
516.8	120.6
517.0	121.0
517.2	120.7
517.4	121.3
517.6	121.9
517.8	123.3
518.0	124.7
518.2	125.2
518.4	125.3
518.6	126.4
518.8	127.2
519.0	130.0
519.2	131.0
519.4	133.0
519.6	132.8
519.8	133.9
520.0	134.2
520.2	135.3
520.4	136.6
520.6	138.4
520.8	139.2
521.0	140.2
521.2	140.3
521.4	140.8
521.6	142.4
521.8	141.5
522.0	142.9
522.2	143.4
522.4	144.6
522.6	145.4
522.8	145.0
523.0	143.5
523.2	145.1
523.4	147.2
523.6	149.9
523.8	150.6
524.0	150.0
524.2	149.8
524.4	151.2
524.6	153.5
524.8	155.1
525.0	154.8
525.2	155.2
525.4	156.1
525.6	157.3
525.8	158.5
526.0	158.4
526.2	157.8
526.4	157.6
526.6	157.3
526.8	159.0
527.0	160.2
527.2	161.4
527.4	162.2
527.6	162.0
527.8	161.7
528.0	162.2
528.2	163.0
528.4	163.2
528.6	164.5
528.8	164.9
529.0	165.3
529.2	165.1
529.4	166.6
529.6	167.5
529.8	169.0
530.0	169.1
530.2	168.9
530.4	167.8
530.6	169.6
530.8	171.1
531.0	171.6
531.2	172.3
531.4	172.1
531.6	171.3
531.8	172.2
532.0	172.8
532.2	172.6
532.4	173.3
532.6	172.9
532.8	172.7
533.0	172.7
533.2	173.4
533.4	175.2
533.6	175.2
533.8	175.1
534.0	174.2
534.2	173.0
534.4	172.9
534.6	174.5
534.8	175.1
535.0	175.0
535.2	174.6
535.4	174.4
535.6	175.4
535.8	175.2
536.0	176.5
536.2	175.8
536.4	175.4
536.6	175.4
536.8	175.4
537.0	175.4
537.2	176.7
537.4	176.7
537.6	176.6
537.8	176.6
538.0	176.3
538.2	176.6
538.4	177.5
538.6	177.1
538.8	178.8
539.0	179.2
539.2	178.8
539.4	176.5
539.6	175.8
539.8	174.5
540.0	176.1
540.2	177.7
540.4	178.5
540.6	177.9
540.8	178.0
541.0	177.1
541.2	176.9
541.4	176.9
541.6	176.4
541.8	176.3
542.0	177.5
542.2	178.2
542.4	178.6
542.6	179.0
542.8	178.3
543.0	177.2
543.2	176.2
543.4	176.7
543.6	177.8
543.8	179.7
544.0	179.7
544.2	179.1
544.4	176.3
544.6	175.3
544.8	174.3
545.0	175.5
545.2	176.7
545.4	177.5
545.6	177.5
545.8	176.7
546.0	175.1
546.2	175.4
546.4	174.5
546.6	173.8
546.8	173.8
547.0	175.3
547.2	176.4
547.4	177.2
547.6	176.6
547.8	176.3
548.0	175.8
548.2	176.2
548.4	175.6
548.6	173.8
548.8	173.9
549.0	173.7
549.2	174.0
549.4	173.4
549.6	172.4
549.8	170.1
550.0	170.0
550.2	170.6
550.4	171.7
550.6	171.3
550.8	171.2
551.0	170.8
551.2	171.3
551.4	170.9
551.6	170.4
551.8	170.0
552.0	170.6
552.2	170.6
552.4	171.2
552.6	170.4
552.8	169.9
553.0	169.8
553.2	170.2
553.4	169.2
553.6	167.7
553.8	167.3
554.0	167.1
554.2	166.3
554.4	166.7
554.6	166.3
554.8	165.3
555.0	164.2
555.2	163.9
555.4	163.0
555.6	162.7
555.8	163.5
556.0	164.2
556.2	165.5
556.4	165.7
556.6	165.3
556.8	162.9
557.0	162.7
557.2	161.0
557.4	160.9
557.6	159.5
557.8	159.4
558.0	159.2
558.2	160.6
558.4	159.7
558.6	159.7
558.8	161.0
559.0	161.1
559.2	160.6
559.4	160.5
559.6	158.3
559.8	157.2
560.0	156.4
560.2	156.7
560.4	155.9
560.6	158.3
560.8	159.6
561.0	159.3
561.2	157.2
561.4	156.3
561.6	154.5
561.8	155.3
562.0	155.9
562.2	155.3
562.4	154.7
562.6	153.7
562.8	153.4
563.0	154.0
563.2	154.6
563.4	154.3
563.6	154.1
563.8	152.9
564.0	153.0
564.2	153.0
564.4	151.7
564.6	151.1
564.8	150.4
565.0	149.5
565.2	150.6
565.4	150.5
565.6	149.2
565.8	149.7
566.0	149.5
566.2	149.8
566.4	149.2
566.6	147.7
566.8	146.3
567.0	146.3
567.2	145.0
567.4	144.6
567.6	143.3
567.8	141.8
568.0	141.3
568.2	141.7
568.4	141.2
568.6	140.8
568.8	140.5
569.0	140.1
569.2	139.5
569.4	139.4
569.6	140.1
569.8	140.7
570.0	140.5
570.2	139.8
570.4	138.2
570.6	136.8
570.8	135.7
571.0	135.2
571.2	135.6
571.4	135.0
571.6	135.5
571.8	135.6
572.0	134.5
572.2	133.7
572.4	133.2
572.6	132.6
572.8	132.8
573.0	133.1
573.2	132.6
573.4	132.1
573.6	131.2
573.8	131.6
574.0	131.9
574.2	131.6
574.4	130.7
574.6	129.4
574.8	128.2
575.0	127.1
575.2	127.7
575.4	128.4
575.6	129.4
575.8	129.1
576.0	127.7
576.2	125.2
576.4	125.2
576.6	124.9
576.8	124.9
577.0	124.0
577.2	124.4
577.4	123.7
577.6	123.1
577.8	121.9
578.0	120.6
578.2	120.2
578.4	121.1
578.6	121.0
578.8	120.8
579.0	120.7
579.2	120.5
579.4	120.2
579.6	121.1
579.8	120.3
580.0	120.2
580.2	119.3
580.4	118.2
580.6	117.3
580.8	117.5
581.0	115.9
581.2	115.5
581.4	114.5
581.6	113.9
581.8	113.7
582.0	113.2
582.2	112.8
582.4	113.5
582.6	114.2
582.8	113.8
583.0	112.7
583.2	111.3
583.4	111.0
583.6	110.8
583.8	111.3
584.0	110.9
584.2	110.7
584.4	109.8
584.6	110.1
584.8	109.1
585.0	109.7
585.2	109.9
585.4	109.2
585.6	108.5
585.8	107.6
586.0	106.5
586.2	106.5
586.4	105.7
586.6	104.3
586.8	104.5
587.0	104.0
587.2	104.5
587.4	104.7
587.6	104.0
587.8	103.0
588.0	102.5
588.2	101.5
588.4	102.3
588.6	101.8
588.8	101.1
589.0	100.0
589.2	99.57
589.4	99.42
589.6	99.81
589.8	100.0
590.0	98.63
590.2	96.20
590.4	95.16
590.6	94.41
590.8	93.99
591.0	94.34
591.2	94.03
591.4	93.83
591.6	94.82
591.8	96.20
592.0	95.51
592.2	94.25
592.4	93.78
592.6	93.22
592.8	93.44
593.0	93.88
593.2	92.59
593.4	92.13
593.6	91.41
593.8	90.96
594.0	90.19
594.2	89.72
594.4	88.85
594.6	88.60
594.8	88.65
595.0	89.05
595.2	88.82
595.4	87.84
595.6	86.95
595.8	86.91
596.0	88.11
596.2	88.15
596.4	88.15
596.6	87.02
596.8	84.49
597.0	83.53
597.2	83.09
597.4	82.88
597.6	83.80
597.8	84.27
598.0	83.07
598.2	82.38
598.4	82.16
598.6	81.79
598.8	82.17
599.0	81.27
599.2	79.70
599.4	78.54
599.6	78.77
599.8	78.41
600.0	78.98
600.2	79.86
600.4	79.38
600.6	80.09
600.8	79.39
601.0	78.35
601.2	77.35
601.4	76.64
601.6	75.21
601.8	75.35
602.0	75.09
602.2	75.41
602.4	75.95
602.6	76.07
602.8	75.24
603.0	74.45
603.2	74.49
603.4	74.13
603.6	73.85
603.8	72.58
604.0	72.07
604.2	72.59
604.4	74.05
604.6	74.24
604.8	74.03
605.0	71.48
605.2	70.43
605.4	70.56
605.6	70.79
605.8	70.44
606.0	70.33
606.2	69.52
606.4	68.41
606.6	68.64
606.8	68.54
607.0	68.11
607.2	67.13
607.4	66.21
607.6	65.55
607.8	66.65
608.0	67.81
608.2	67.51
608.4	66.66
608.6	65.49
608.8	65.72
609.0	66.03
609.2	66.86
609.4	66.56
609.6	65.27
609.8	64.65
610.0	64.82
610.2	64.67
610.4	64.96
610.6	63.94
610.8	61.95
611.0	60.67
611.2	60.15
611.4	60.57
611.6	60.82
611.8	60.72
612.0	60.72
612.2	60.76
612.4	60.91
612.6	60.92
612.8	60.62
613.0	59.83
613.2	59.84
613.4	59.20
613.6	58.30
613.8	58.44
614.0	58.78
614.2	58.24
614.4	58.80
614.6	57.25
614.8	56.04
615.0	55.78
615.2	55.14
615.4	55.47
615.6	55.59
615.8	54.93
616.0	54.46
616.2	54.26
616.4	53.73
616.6	55.19
616.8	54.89
617.0	54.34
617.2	52.76
617.4	51.93
617.6	51.40
617.8	52.49
618.0	53.22
618.2	53.55
618.4	52.71
618.6	51.80
618.8	51.20
619.0	50.77
619.2	50.42
619.4	50.18
619.6	49.65
619.8	49.12
620.0	49.16
620.2	48.79
620.4	48.10
620.6	47.65
620.8	47.34
621.0	47.27
621.2	48.12
621.4	48.21
621.6	47.53
621.8	46.73
622.0	46.47
622.2	46.61
622.4	47.55
622.6	48.65
622.8	48.58
623.0	48.27
623.2	46.91
623.4	45.47
623.6	44.26
623.8	43.95
624.0	44.20
624.2	44.44
624.4	44.11
624.6	44.47
624.8	44.41
625.0	43.85
625.2	44.12
625.4	43.05
625.6	42.63
625.8	42.70
626.0	42.03
626.2	41.47
626.4	41.80
626.6	41.44
626.8	41.45
627.0	41.51
627.2	41.64
627.4	41.24
627.6	41.58
627.8	40.86
628.0	40.45
628.2	40.31
628.4	40.57
628.6	39.95
628.8	40.81
629.0	40.62
629.2	40.18
629.4	39.89
629.6	38.90
629.8	37.49
630.0	37.95
630.2	37.73
630.4	37.03
630.6	36.89
630.8	36.22
631.0	36.00
631.2	36.39
631.4	36.34
631.6	36.52
631.8	36.09
632.0	35.51
632.2	35.45
632.4	35.62
632.6	35.87
632.8	36.12
633.0	35.14
633.2	35.06
633.4	35.11
633.6	35.27
633.8	34.83
634.0	34.36
634.2	33.23
634.4	33.72
634.6	34.08
634.8	34.33
635.0	34.07
635.2	33.59
635.4	33.13
635.6	32.96
635.8	32.58
636.0	32.46
636.2	32.24
636.4	31.87
636.6	32.13
636.8	32.15
637.0	31.71
637.2	31.50
637.4	30.99
637.6	30.11
637.8	29.60
638.0	29.42
638.2	30.00
638.4	30.41
638.6	31.19
638.8	31.10
639.0	30.62
639.2	30.17
639.4	30.31
639.6	29.88
639.8	29.67
640.0	29.11
640.2	28.11
640.4	27.32
640.6	27.30
640.8	27.12
641.0	27.58
641.2	27.51
641.4	27.49
641.6	27.60
641.8	27.33
642.0	26.86
642.2	27.37
642.4	26.83
642.6	27.33
642.8	26.54
643.0	25.64
643.2	25.56
643.4	25.61
643.6	25.59
643.8	25.98
644.0	25.51
644.2	25.35
644.4	25.31
644.6	25.21
644.8	24.81
645.0	24.63
645.2	24.26
645.4	23.66
645.6	23.46
645.8	23.41
646.0	24.03
646.2	24.42
646.4	24.29
646.6	23.80
646.8	23.44
647.0	23.34
647.2	23.58
647.4	23.43
647.6	23.09
647.8	23.38
648.0	23.75
648.2	24.17
648.4	23.36
648.6	22.86
648.8	22.19
649.0	22.62
649.2	22.58
649.4	22.33
649.6	21.72
649.8	21.29
650.0	21.32
650.2	21.43
650.4	21.85
650.6	22.03
650.8	22.03
651.0	21.57
651.2	21.04
651.4	20.39
651.6	20.15
651.8	19.90
652.0	19.97
652.2	20.28
652.4	20.57
652.6	20.72
652.8	20.00
653.0	19.63
653.2	19.29
653.4	19.35
653.6	19.34
653.8	19.36
654.0	18.67
654.2	18.81
654.4	18.56
654.6	18.49
654.8	18.34
655.0	18.28
655.2	18.00
655.4	18.27
655.6	18.35
655.8	18.12
656.0	18.22
656.2	18.04
656.4	17.41
656.6	17.34
656.8	17.38
657.0	17.04
657.2	17.15
657.4	17.31
657.6	17.17
657.8	17.50
658.0	18.03
658.2	17.64
658.4	17.17
658.6	17.18
658.8	17.04
659.0	16.47
659.2	16.39
659.4	16.12
659.6	16.06
659.8	16.42
660.0	16.56
660.2	15.97
660.4	15.86
660.6	15.55
660.8	15.37
661.0	15.45
661.2	15.34
661.4	15.23
661.6	15.30
661.8	14.73
662.0	14.43
662.2	14.26
662.4	14.05
662.6	14.22
662.8	14.22
663.0	14.47
663.2	14.76
663.4	14.89
663.6	14.82
663.8	14.67
664.0	14.13
664.2	13.71
664.4	13.34
664.6	13.43
664.8	13.36
665.0	13.40
665.2	13.44
665.4	13.38
665.6	13.09
665.8	13.07
666.0	13.11
666.2	13.32
666.4	13.48
666.6	13.49
666.8	13.22
667.0	12.61
667.2	12.50
667.4	12.43
667.6	12.34
667.8	12.33
668.0	12.61
668.2	12.69
668.4	12.89
668.6	12.92
668.8	12.84
669.0	12.28
669.2	12.26
669.4	12.24
669.6	12.05
669.8	11.90
670.0	11.88
670.2	11.31
670.4	11.50
670.6	11.96
670.8	12.09
671.0	11.71
671.2	12.00
671.4	11.30
671.6	10.94
671.8	11.08
672.0	11.07
672.2	10.82
672.4	11.06
672.6	10.60
672.8	10.25
673.0	10.31
673.2	10.17
673.4	10.32
673.6	10.27
673.8	10.46
674.0	10.27
674.2	10.22
674.4	9.918
674.6	9.851
674.8	9.824
675.0	9.998
675.2	10.01
675.4	10.09
675.6	10.32
675.8	9.920
676.0	9.835
676.2	9.643
676.4	9.692
676.6	10.01
676.8	9.869
677.0	9.260
677.2	8.880
677.4	9.017
677.6	9.272
677.8	9.584
678.0	9.151
678.2	8.819
678.4	8.516
678.6	8.673
678.8	9.057
679.0	9.186
679.2	8.942
679.4	9.459
679.6	9.759
679.8	9.427
680.0	9.498
680.2	8.974
680.4	8.229
680.6	8.585
680.8	8.571
681.0	8.190
681.2	8.111
681.4	7.735
681.6	7.678
681.8	7.992
682.0	8.368
682.2	8.516
682.4	8.207
682.6	7.817
682.8	7.620
683.0	7.491
683.2	7.759
683.4	7.816
683.6	7.568
683.8	7.480
684.0	7.461
684.2	7.653
684.4	7.736
684.6	7.548
684.8	7.168
685.0	6.824
685.2	6.606
685.4	6.799
685.6	6.785
685.8	6.820
686.0	6.986
686.2	6.983
686.4	6.707
686.6	6.680
686.8	6.283
687.0	6.138
687.2	6.220
687.4	6.316
687.6	6.548
687.8	6.683
688.0	6.719
688.2	6.934
688.4	6.913
688.6	6.972
688.8	6.778
689.0	6.469
689.2	6.101
689.4	6.095
689.6	6.007
689.8	6.249
690.0	6.133
690.2	6.069
690.4	5.763
690.6	5.851
690.8	6.040
691.0	6.001
691.2	5.981
691.4	5.869
691.6	5.617
691.8	5.611
692.0	5.706
692.2	5.401
692.4	5.479
692.6	5.619
692.8	5.738
693.0	5.648
693.2	5.588
693.4	5.468
693.6	5.349
693.8	5.135
694.0	5.406
694.2	5.376
694.4	5.335
694.6	5.460
694.8	5.358
695.0	5.236
695.2	5.450
695.4	5.296
695.6	5.219
695.8	5.347
696.0	5.121
696.2	5.276
696.4	5.271
696.6	5.253
696.8	5.460
697.0	5.399
697.2	5.161
697.4	5.010
697.6	5.056
697.8	5.173
698.0	5.162
698.2	4.809
698.4	4.591
698.6	4.416
698.8	4.415
699.0	4.339
699.2	4.360
699.4	4.226
699.6	4.147
699.8	4.479
700.0	4.796
700.2	4.875
700.4	5.111
700.6	5.072
700.8	4.629
701.0	4.538
701.2	4.549
701.4	4.373
701.6	4.650
701.8	4.742
702.0	4.738
702.2	4.812
702.4	4.618
702.6	4.477
702.8	4.569
703.0	4.513
703.2	4.397
703.4	4.439
703.6	4.375
703.8	4.290
704.0	4.321
704.2	4.225
704.4	3.952
704.6	3.886
704.8	3.925
705.0	3.660
705.2	3.791
705.4	3.909
705.6	4.015
705.8	4.108
706.0	4.105
706.2	3.814
706.4	3.743
706.6	3.725
706.8	3.621
707.0	3.640
707.2	3.390
707.4	3.284
707.6	3.281
707.8	3.476
708.0	3.682
708.2	3.943
708.4	3.952
708.6	3.920
708.8	3.833
709.0	3.768
709.2	3.644
709.4	3.554
709.6	3.579
709.8	3.390
710.0	3.413
710.2	3.369
710.4	3.359
710.6	3.331
710.8	3.387
711.0	3.432
711.2	3.561
711.4	3.400
711.6	3.300
711.8	2.996
712.0	3.047
712.2	3.083
712.4	3.180
712.6	3.106
712.8	3.028
713.0	2.986
713.2	2.951
713.4	2.958
713.6	3.049
713.8	3.135
714.0	3.216
714.2	3.197
714.4	3.100
714.6	3.112
714.8	3.241
715.0	3.368
715.2	3.372
715.4	3.239
715.6	3.145
715.8	3.017
716.0	3.104
716.2	3.130
716.4	3.322
716.6	3.313
716.8	3.106
717.0	2.844
717.2	2.843
717.4	2.812
717.6	2.903
717.8	2.812
718.0	2.706
718.2	2.601
718.4	2.855
718.6	2.953
718.8	3.019
719.0	2.914
719.2	2.855
719.4	2.927
719.6	2.797
719.8	2.902
720.0	2.848
720.2	2.820
720.4	2.751
720.6	2.813
720.8	2.603
721.0	2.539
721.2	2.398
721.4	2.377
721.6	2.402
721.8	2.561
722.0	2.505
722.2	2.512
722.4	2.559
722.6	2.605
722.8	2.539
723.0	2.498
723.2	2.247
723.4	2.200
723.6	1.981
723.8	2.025
724.0	2.034
724.2	2.343
724.4	2.554
724.6	2.735
724.8	2.707
725.0	2.559
725.2	2.366
725.4	2.220
725.6	1.953
725.8	2.063
726.0	2.216
726.2	2.137
726.4	2.150
726.6	2.188
726.8	2.083
727.0	2.242
727.2	2.270
727.4	2.219
727.6	2.223
727.8	2.250
728.0	2.147
728.2	2.125
728.4	2.236
728.6	2.227
728.8	2.187
729.0	2.166
729.2	2.169
729.4	2.205
729.6	2.245
729.8	2.129
730.0	2.103
730.2	1.902
730.4	1.829
730.6	1.626
730.8	1.567
731.0	1.635
731.2	1.794
731.4	1.818
731.6	1.821
731.8	1.732
732.0	1.711
732.2	1.721
732.4	1.846
732.6	2.024
732.8	2.077
733.0	1.955
733.2	1.724
733.4	1.574
733.6	1.530
733.8	1.557
734.0	1.606
734.2	1.587
734.4	1.632
734.6	1.684
734.8	1.777
735.0	1.656
735.2	1.572
735.4	1.475
735.6	1.520
735.8	1.608
736.0	1.886
736.2	1.951
736.4	1.875
736.6	1.795
736.8	1.612
737.0	1.417
737.2	1.514
737.4	1.643
737.6	1.669
737.8	1.796
738.0	1.772
738.2	1.620
738.4	1.644
738.6	1.594
738.8	1.449
739.0	1.421
739.2	1.466
739.4	1.482
739.6	1.467
739.8	1.375
740.0	1.282
740.2	1.362
740.4	1.435
740.6	1.467
740.8	1.445
741.0	1.527
741.2	1.431
741.4	1.428
741.6	1.531
741.8	1.419
742.0	1.339
742.2	1.230
742.4	1.133
742.6	1.180
742.8	1.292
743.0	1.319
743.2	1.263
743.4	1.183
743.6	1.310
743.8	1.315
744.0	1.336
744.2	1.494
744.4	1.564
744.6	1.519
744.8	1.484
745.0	1.229
745.2	1.138
745.4	1.125
745.6	1.186
745.8	1.130
746.0	1.316
746.2	1.290
746.4	1.445
746.6	1.425
746.8	1.416
747.0	1.163
747.2	1.133
747.4	1.081
747.6	1.190
747.8	1.311
748.0	1.409
748.2	1.243
748.4	1.183
748.6	1.185
748.8	1.023
749.0	1.064
749.2	1.087
749.4	1.081
749.6	1.196
749.8	1.228
750.0	0.910
750.2	0.847
750.4	0.857
750.6	1.033
750.8	1.317
751.0	1.561
751.2	1.474
751.4	1.263
751.6	1.158
751.8	1.153
752.0	1.025
752.2	1.235
752.4	1.261
752.6	1.102
752.8	1.156
753.0	1.146
753.2	0.996
753.4	1.051
753.6	1.008
753.8	0.861
754.0	0.836
754.2	0.914
754.4	1.087
754.6	1.207
754.8	1.173
755.0	1.015
755.2	0.840
755.4	0.809
755.6	0.909
755.8	0.852
756.0	0.825
756.2	0.830
756.4	0.781
756.6	0.816
756.8	0.845
757.0	0.747
757.2	0.783
757.4	0.825
757.6	0.862
757.8	0.946
758.0	0.926
758.2	0.910
758.4	0.943
758.6	0.937
758.8	0.896
759.0	0.925
759.2	0.783
759.4	0.830
759.6	0.787
759.8	0.875
760.0	1.019
760.2	1.114
760.4	1.114
760.6	1.210
760.8	0.984
761.0	0.940
761.2	0.912
761.4	0.801
761.6	0.798
761.8	0.900
762.0	0.911
762.2	0.955
762.4	1.027
762.6	0.918
762.8	0.780
763.0	0.780
763.2	0.742
763.4	0.764
763.6	0.854
763.8	0.872
764.0	0.930
764.2	0.907
764.4	0.921
764.6	0.824
764.8	0.830
765.0	0.856
765.2	0.889
765.4	0.841
765.6	0.906
765.8	0.731
766.0	0.659
766.2	0.606
766.4	0.662
766.6	0.796
766.8	0.918
767.0	0.912
767.2	0.749
767.4	0.741
767.6	0.723
767.8	0.684
768.0	0.681
768.2	0.805
768.4	0.778
768.6	0.803
768.8	0.864
769.0	0.820
769.2	0.760
769.4	0.804
769.6	0.707
769.8	0.625
770.0	0.713
770.2	0.852
770.4	0.879
770.6	0.860
770.8	0.762
771.0	0.709
771.2	0.571
771.4	0.739
771.6	0.788
771.8	0.878
772.0	0.815
772.2	0.837
772.4	0.699
772.6	0.762
772.8	0.728
773.0	0.815
773.2	0.750
773.4	0.771
773.6	0.717
773.8	0.712
774.0	0.657
774.2	0.615
774.4	0.568
774.6	0.562
774.8	0.544
775.0	0.624
775.2	0.746
775.4	0.687
775.6	0.626
775.8	0.508
776.0	0.331
776.2	0.360
776.4	0.512
776.6	0.572
776.8	0.590
777.0	0.561
777.2	0.524
777.4	0.582
777.6	0.662
777.8	0.692
778.0	0.693
778.2	0.766
778.4	0.728
778.6	0.676
778.8	0.626
779.0	0.575
779.2	0.514
779.4	0.593
779.6	0.641
779.8	0.762
780.0	0.795
780.2	0.839
780.4	0.650
780.6	0.632
780.8	0.670
781.0	0.766
781.2	0.813
781.4	0.877
781.6	0.754
781.8	0.789
782.0	0.840
782.2	0.933
782.4	0.934
782.6	1.000
782.8	0.922
783.0	0.906
783.2	0.823
783.4	0.719
783.6	0.727
783.8	0.844
784.0	0.906
784.2	1.036
784.4	0.975
784.6	0.963
784.8	1.036
785.0	1.097
785.2	1.086
785.4	1.246
785.6	1.282
785.8	1.393
786.0	1.316
786.2	1.386
786.4	1.302
786.6	1.317
786.8	1.229
787.0	1.250
787.2	1.236
787.4	1.493
787.6	1.601
787.8	1.487
788.0	1.444
788.2	1.538
788.4	1.676
788.6	1.841
788.8	1.786
789.0	1.610
789.2	1.645
789.4	1.655
789.6	1.768
789.8	1.965
790.0	1.948
790.2	1.961
790.4	1.840
790.6	1.782
790.8	1.701
791.0	1.923
791.2	2.216
791.4	2.338
791.6	2.231
791.8	2.268
792.0	2.086
792.2	2.083
792.4	2.409
792.6	2.593
792.8	2.803
793.0	3.024
793.2	2.934
793.4	2.693
793.6	2.522
793.8	2.654
794.0	2.946
794.2	3.061
794.4	3.103
794.6	3.179
794.8	3.140
795.0	3.399
795.2	3.470
795.4	3.148
795.6	3.193
795.8	3.326
796.0	3.256
796.2	3.449
796.4	3.411
796.6	3.410
796.8	3.601
797.0	3.753
797.2	3.884
797.4	4.134
797.6	4.264
797.8	4.293
798.0	4.185
798.2	4.213
798.4	4.347
798.6	4.367
798.8	4.500
799.0	4.606
799.2	4.540
799.4	4.630
799.6	4.547
799.8	4.394
800.0	4.188

