Sample:	'20211010A(EM)
File name:	G-NI 9 900.FDS
Run date:	'19:45:10, 06/19/2023
Operator:	Administrator
Comment:	'

Instrument
Model:	F-4700 FL Spectrophotometer
Serial number:	2019-001
ROM Version:	5J24010 00

Instrument parameters
Measurement type:	Wavelength scan
Scan mode:	Emission
Data mode:	Fluorescence
EX WL:	400.0 nm
EM  Start WL:	420.0 nm
EM  End WL:	800.0 nm
Scan speed:	1200 nm/min
Delay:	0.0 s
EX Slit:	10.0 nm
EM Slit:	10.0 nm
PMT Voltage:	500 V
Response:	0.002 s
Corrected spectra:	Off
Shutter control:	On

Processing performed
Savitsky-Golay smoothed
Smoothing order:	3
Number of points:	7
Number of times:	1

Peak integration
Integration method:	Rectangular
Sensitivity:	1
Threshold:	1.000

Peaks
No.	Start(nm)	Apex(nm)	End(nm)	Height(Data)	Valley(nm)	Valley(Data)
1	420.0	544.0	544.8	1477	544.8	1466
2	544.8	546.4	547.0	1487	547.0	1475
3	547.0	550.2	551.0	1494	551.0	1477
4	551.0	551.8	554.6	1488	554.6	1464
5	554.6	555.2	712.2	1471	712.2	26.08
6	712.2	713.2	714.6	28.01	714.6	24.15
7	714.6	715.6	718.8	25.50	718.8	20.04
8	718.8	720.2	785.8	21.38	785.8	2.822

Data points
nm	Data
420.0	0.888
420.2	0.814
420.4	0.826
420.6	0.879
420.8	0.900
421.0	0.912
421.2	0.876
421.4	0.947
421.6	0.911
421.8	1.164
422.0	1.225
422.2	1.237
422.4	1.244
422.6	1.176
422.8	1.101
423.0	1.135
423.2	1.074
423.4	0.998
423.6	0.924
423.8	0.830
424.0	0.772
424.2	0.781
424.4	0.971
424.6	1.029
424.8	0.938
425.0	0.884
425.2	0.822
425.4	0.825
425.6	0.884
425.8	0.871
426.0	0.858
426.2	0.897
426.4	0.952
426.6	0.887
426.8	0.742
427.0	0.659
427.2	0.538
427.4	0.659
427.6	0.705
427.8	0.769
428.0	0.943
428.2	1.032
428.4	0.876
428.6	0.953
428.8	0.838
429.0	0.948
429.2	1.012
429.4	0.991
429.6	0.814
429.8	0.802
430.0	0.895
430.2	0.958
430.4	0.868
430.6	0.782
430.8	0.650
431.0	0.694
431.2	0.845
431.4	0.881
431.6	0.987
431.8	0.932
432.0	0.877
432.2	0.946
432.4	0.988
432.6	1.046
432.8	1.100
433.0	1.034
433.2	1.011
433.4	1.016
433.6	0.869
433.8	0.914
434.0	0.961
434.2	1.013
434.4	1.043
434.6	1.000
434.8	0.824
435.0	0.761
435.2	0.795
435.4	0.781
435.6	0.933
435.8	0.994
436.0	1.047
436.2	1.081
436.4	1.107
436.6	1.004
436.8	1.044
437.0	0.938
437.2	0.806
437.4	0.947
437.6	0.994
437.8	0.992
438.0	0.999
438.2	0.994
438.4	0.877
438.6	0.847
438.8	0.777
439.0	0.722
439.2	0.793
439.4	0.913
439.6	1.078
439.8	1.086
440.0	1.054
440.2	1.143
440.4	1.293
440.6	1.249
440.8	1.105
441.0	0.924
441.2	0.752
441.4	0.819
441.6	0.945
441.8	0.977
442.0	0.927
442.2	0.960
442.4	0.957
442.6	0.914
442.8	0.885
443.0	0.844
443.2	0.843
443.4	0.905
443.6	1.057
443.8	1.182
444.0	1.111
444.2	1.020
444.4	0.940
444.6	0.941
444.8	0.947
445.0	0.959
445.2	0.856
445.4	0.757
445.6	0.853
445.8	1.089
446.0	1.119
446.2	1.141
446.4	1.138
446.6	1.014
446.8	1.006
447.0	1.034
447.2	0.952
447.4	1.077
447.6	1.149
447.8	1.191
448.0	1.131
448.2	1.124
448.4	1.207
448.6	1.347
448.8	1.257
449.0	1.211
449.2	1.017
449.4	1.018
449.6	1.072
449.8	1.221
450.0	1.234
450.2	1.314
450.4	1.312
450.6	1.276
450.8	1.161
451.0	1.201
451.2	1.144
451.4	1.096
451.6	1.110
451.8	1.121
452.0	1.201
452.2	1.280
452.4	1.260
452.6	1.150
452.8	1.106
453.0	1.136
453.2	1.254
453.4	1.295
453.6	1.441
453.8	1.359
454.0	1.353
454.2	1.300
454.4	1.296
454.6	1.309
454.8	1.457
455.0	1.467
455.2	1.466
455.4	1.436
455.6	1.420
455.8	1.414
456.0	1.403
456.2	1.465
456.4	1.442
456.6	1.444
456.8	1.357
457.0	1.267
457.2	1.221
457.4	1.304
457.6	1.234
457.8	1.124
458.0	1.086
458.2	1.230
458.4	1.377
458.6	1.603
458.8	1.629
459.0	1.612
459.2	1.674
459.4	1.746
459.6	1.786
459.8	1.639
460.0	1.568
460.2	1.607
460.4	1.657
460.6	1.723
460.8	2.076
461.0	1.918
461.2	2.059
461.4	2.125
461.6	2.167
461.8	2.192
462.0	2.356
462.2	2.094
462.4	2.134
462.6	1.989
462.8	2.054
463.0	2.195
463.2	2.348
463.4	2.525
463.6	2.635
463.8	2.481
464.0	2.467
464.2	2.567
464.4	2.760
464.6	3.146
464.8	3.099
465.0	2.884
465.2	2.897
465.4	2.875
465.6	3.027
465.8	3.265
466.0	3.222
466.2	3.109
466.4	3.215
466.6	3.106
466.8	3.211
467.0	3.403
467.2	3.767
467.4	3.846
467.6	3.958
467.8	3.913
468.0	3.971
468.2	3.992
468.4	3.969
468.6	3.958
468.8	4.074
469.0	4.073
469.2	4.468
469.4	4.736
469.6	4.766
469.8	4.926
470.0	5.123
470.2	5.169
470.4	5.545
470.6	5.905
470.8	5.931
471.0	5.832
471.2	5.779
471.4	5.599
471.6	5.590
471.8	5.708
472.0	5.946
472.2	6.109
472.4	6.415
472.6	6.698
472.8	6.954
473.0	7.253
473.2	7.663
473.4	7.710
473.6	8.155
473.8	8.269
474.0	8.300
474.2	8.333
474.4	8.465
474.6	8.397
474.8	8.789
475.0	8.936
475.2	9.323
475.4	9.821
475.6	10.48
475.8	11.10
476.0	11.61
476.2	11.76
476.4	11.91
476.6	12.26
476.8	12.45
477.0	13.30
477.2	13.66
477.4	13.84
477.6	13.99
477.8	14.52
478.0	15.04
478.2	16.17
478.4	16.93
478.6	17.28
478.8	16.80
479.0	16.69
479.2	16.94
479.4	17.88
479.6	18.71
479.8	19.89
480.0	20.28
480.2	21.17
480.4	21.95
480.6	22.90
480.8	22.80
481.0	23.46
481.2	24.05
481.4	24.98
481.6	25.21
481.8	26.68
482.0	27.64
482.2	28.83
482.4	29.25
482.6	29.54
482.8	29.34
483.0	30.60
483.2	32.06
483.4	33.97
483.6	34.24
483.8	35.49
484.0	36.66
484.2	38.28
484.4	39.27
484.6	40.36
484.8	39.93
485.0	40.51
485.2	41.77
485.4	43.54
485.6	45.50
485.8	47.28
486.0	48.53
486.2	49.21
486.4	50.69
486.6	52.16
486.8	54.45
487.0	56.21
487.2	56.94
487.4	57.63
487.6	58.03
487.8	59.40
488.0	61.39
488.2	64.02
488.4	66.05
488.6	67.93
488.8	69.07
489.0	70.13
489.2	71.14
489.4	73.60
489.6	75.57
489.8	77.60
490.0	79.79
490.2	82.76
490.4	84.29
490.6	87.24
490.8	89.72
491.0	92.24
491.2	93.31
491.4	96.42
491.6	97.58
491.8	100.2
492.0	102.9
492.2	105.7
492.4	107.6
492.6	111.0
492.8	113.8
493.0	116.6
493.2	118.8
493.4	121.0
493.6	122.8
493.8	126.2
494.0	130.1
494.2	133.2
494.4	136.7
494.6	140.2
494.8	142.2
495.0	146.0
495.2	149.2
495.4	152.9
495.6	156.7
495.8	159.7
496.0	162.8
496.2	165.8
496.4	169.4
496.6	171.8
496.8	176.6
497.0	180.0
497.2	184.7
497.4	188.9
497.6	191.6
497.8	193.4
498.0	198.2
498.2	201.8
498.4	205.7
498.6	210.2
498.8	212.3
499.0	218.5
499.2	222.9
499.4	228.7
499.6	233.9
499.8	238.2
500.0	243.2
500.2	249.7
500.4	253.7
500.6	259.7
500.8	263.6
501.0	265.4
501.2	271.2
501.4	277.8
501.6	281.8
501.8	288.9
502.0	293.6
502.2	297.1
502.4	301.6
502.6	306.9
502.8	309.9
503.0	316.9
503.2	322.6
503.4	327.3
503.6	331.3
503.8	336.2
504.0	341.3
504.2	348.9
504.4	356.8
504.6	363.5
504.8	369.8
505.0	373.0
505.2	377.5
505.4	383.5
505.6	390.7
505.8	398.9
506.0	402.7
506.2	406.0
506.4	412.0
506.6	421.1
506.8	430.9
507.0	440.1
507.2	442.9
507.4	447.7
507.6	452.7
507.8	457.2
508.0	464.8
508.2	473.0
508.4	479.6
508.6	488.0
508.8	494.6
509.0	498.5
509.2	507.2
509.4	515.0
509.6	523.5
509.8	530.8
510.0	537.1
510.2	543.4
510.4	548.8
510.6	553.8
510.8	560.3
511.0	567.6
511.2	576.1
511.4	583.8
511.6	589.5
511.8	598.5
512.0	607.6
512.2	615.2
512.4	619.1
512.6	623.2
512.8	628.3
513.0	634.7
513.2	645.4
513.4	656.1
513.6	664.0
513.8	673.8
514.0	681.3
514.2	686.0
514.4	692.7
514.6	698.8
514.8	702.9
515.0	710.3
515.2	719.5
515.4	731.1
515.6	739.0
515.8	746.8
516.0	751.7
516.2	756.7
516.4	766.6
516.6	776.9
516.8	784.6
517.0	790.5
517.2	795.8
517.4	798.1
517.6	808.3
517.8	816.5
518.0	826.9
518.2	831.9
518.4	837.9
518.6	844.3
518.8	855.2
519.0	861.9
519.2	869.3
519.4	873.3
519.6	879.8
519.8	891.0
520.0	901.8
520.2	909.5
520.4	917.5
520.6	921.4
520.8	928.4
521.0	935.1
521.2	941.7
521.4	953.2
521.6	960.4
521.8	964.4
522.0	968.5
522.2	967.8
522.4	972.9
522.6	984.5
522.8	995.7
523.0	1008
523.2	1019
523.4	1024
523.6	1027
523.8	1030
524.0	1035
524.2	1042
524.4	1052
524.6	1063
524.8	1068
525.0	1076
525.2	1082
525.4	1089
525.6	1096
525.8	1100
526.0	1105
526.2	1110
526.4	1113
526.6	1119
526.8	1126
527.0	1131
527.2	1143
527.4	1155
527.6	1160
527.8	1167
528.0	1172
528.2	1173
528.4	1178
528.6	1187
528.8	1195
529.0	1205
529.2	1210
529.4	1215
529.6	1219
529.8	1224
530.0	1228
530.2	1234
530.4	1235
530.6	1240
530.8	1246
531.0	1255
531.2	1261
531.4	1267
531.6	1267
531.8	1272
532.0	1279
532.2	1283
532.4	1288
532.6	1292
532.8	1294
533.0	1302
533.2	1310
533.4	1314
533.6	1316
533.8	1321
534.0	1318
534.2	1324
534.4	1333
534.6	1343
534.8	1347
535.0	1349
535.2	1346
535.4	1348
535.6	1355
535.8	1362
536.0	1365
536.2	1368
536.4	1371
536.6	1376
536.8	1381
537.0	1383
537.2	1386
537.4	1390
537.6	1394
537.8	1397
538.0	1397
538.2	1397
538.4	1399
538.6	1406
538.8	1416
539.0	1418
539.2	1420
539.4	1422
539.6	1422
539.8	1423
540.0	1430
540.2	1428
540.4	1425
540.6	1429
540.8	1436
541.0	1439
541.2	1447
541.4	1451
541.6	1447
541.8	1447
542.0	1447
542.2	1447
542.4	1449
542.6	1457
542.8	1459
543.0	1459
543.2	1459
543.4	1466
543.6	1469
543.8	1475
544.0	1477
544.2	1474
544.4	1471
544.6	1470
544.8	1466
545.0	1468
545.2	1473
545.4	1477
545.6	1477
545.8	1477
546.0	1480
546.2	1485
546.4	1487
546.6	1485
546.8	1478
547.0	1475
547.2	1475
547.4	1477
547.6	1481
547.8	1482
548.0	1486
548.2	1489
548.4	1486
548.6	1486
548.8	1485
549.0	1487
549.2	1485
549.4	1486
549.6	1487
549.8	1489
550.0	1494
550.2	1494
550.4	1487
550.6	1483
550.8	1478
551.0	1477
551.2	1481
551.4	1481
551.6	1486
551.8	1488
552.0	1484
552.2	1479
552.4	1477
552.6	1476
552.8	1476
553.0	1476
553.2	1476
553.4	1475
553.6	1474
553.8	1472
554.0	1468
554.2	1465
554.4	1466
554.6	1464
554.8	1465
555.0	1468
555.2	1471
555.4	1470
555.6	1470
555.8	1463
556.0	1465
556.2	1466
556.4	1468
556.6	1462
556.8	1460
557.0	1456
557.2	1451
557.4	1447
557.6	1442
557.8	1441
558.0	1442
558.2	1442
558.4	1434
558.6	1428
558.8	1422
559.0	1424
559.2	1425
559.4	1423
559.6	1423
559.8	1423
560.0	1423
560.2	1425
560.4	1421
560.6	1418
560.8	1414
561.0	1412
561.2	1409
561.4	1410
561.6	1405
561.8	1404
562.0	1400
562.2	1396
562.4	1398
562.6	1397
562.8	1393
563.0	1388
563.2	1385
563.4	1380
563.6	1382
563.8	1382
564.0	1380
564.2	1374
564.4	1369
564.6	1364
564.8	1361
565.0	1358
565.2	1357
565.4	1356
565.6	1353
565.8	1350
566.0	1346
566.2	1341
566.4	1336
566.6	1335
566.8	1331
567.0	1333
567.2	1332
567.4	1332
567.6	1325
567.8	1323
568.0	1319
568.2	1321
568.4	1315
568.6	1315
568.8	1308
569.0	1305
569.2	1302
569.4	1303
569.6	1300
569.8	1296
570.0	1289
570.2	1282
570.4	1274
570.6	1273
570.8	1271
571.0	1267
571.2	1265
571.4	1264
571.6	1262
571.8	1260
572.0	1257
572.2	1256
572.4	1253
572.6	1249
572.8	1242
573.0	1233
573.2	1229
573.4	1226
573.6	1221
573.8	1225
574.0	1226
574.2	1227
574.4	1221
574.6	1213
574.8	1200
575.0	1195
575.2	1189
575.4	1190
575.6	1190
575.8	1193
576.0	1191
576.2	1187
576.4	1184
576.6	1181
576.8	1178
577.0	1172
577.2	1162
577.4	1155
577.6	1155
577.8	1157
578.0	1158
578.2	1155
578.4	1145
578.6	1143
578.8	1138
579.0	1134
579.2	1130
579.4	1126
579.6	1122
579.8	1122
580.0	1117
580.2	1116
580.4	1110
580.6	1105
580.8	1104
581.0	1098
581.2	1097
581.4	1096
581.6	1092
581.8	1086
582.0	1081
582.2	1073
582.4	1072
582.6	1073
582.8	1074
583.0	1070
583.2	1064
583.4	1056
583.6	1050
583.8	1046
584.0	1046
584.2	1045
584.4	1041
584.6	1037
584.8	1031
585.0	1023
585.2	1021
585.4	1020
585.6	1016
585.8	1013
586.0	1009
586.2	1007
586.4	1004
586.6	1002
586.8	996.0
587.0	987.0
587.2	981.7
587.4	981.2
587.6	977.5
587.8	979.3
588.0	975.3
588.2	970.7
588.4	969.5
588.6	969.5
588.8	964.9
589.0	960.7
589.2	953.3
589.4	949.5
589.6	948.9
589.8	947.3
590.0	941.3
590.2	937.4
590.4	931.1
590.6	928.8
590.8	930.8
591.0	926.3
591.2	920.0
591.4	917.2
591.6	911.8
591.8	906.9
592.0	905.1
592.2	896.9
592.4	894.8
592.6	890.6
592.8	886.6
593.0	884.2
593.2	883.1
593.4	880.5
593.6	880.5
593.8	876.3
594.0	869.8
594.2	865.4
594.4	861.8
594.6	861.3
594.8	861.3
595.0	857.8
595.2	854.4
595.4	849.4
595.6	843.2
595.8	839.1
596.0	836.8
596.2	833.9
596.4	832.8
596.6	830.2
596.8	827.2
597.0	822.2
597.2	820.2
597.4	817.9
597.6	811.7
597.8	809.5
598.0	806.5
598.2	802.8
598.4	800.0
598.6	797.7
598.8	791.0
599.0	787.8
599.2	784.5
599.4	781.2
599.6	779.2
599.8	777.7
600.0	774.4
600.2	769.0
600.4	765.6
600.6	763.9
600.8	763.7
601.0	760.5
601.2	756.3
601.4	750.1
601.6	742.2
601.8	736.5
602.0	731.9
602.2	730.6
602.4	732.9
602.6	732.3
602.8	728.7
603.0	724.5
603.2	718.4
603.4	713.3
603.6	713.0
603.8	709.2
604.0	706.8
604.2	704.8
604.4	700.9
604.6	695.0
604.8	692.8
605.0	688.0
605.2	686.7
605.4	682.9
605.6	682.9
605.8	682.0
606.0	680.1
606.2	677.9
606.4	673.3
606.6	668.4
606.8	665.3
607.0	660.3
607.2	656.4
607.4	657.0
607.6	653.4
607.8	653.4
608.0	648.2
608.2	644.4
608.4	641.3
608.6	640.6
608.8	638.9
609.0	637.7
609.2	631.7
609.4	627.7
609.6	623.6
609.8	621.3
610.0	616.7
610.2	613.6
610.4	610.0
610.6	607.5
610.8	608.0
611.0	607.0
611.2	599.8
611.4	591.3
611.6	585.5
611.8	581.7
612.0	584.1
612.2	583.7
612.4	583.5
612.6	581.4
612.8	578.6
613.0	576.0
613.2	572.2
613.4	566.2
613.6	564.8
613.8	562.1
614.0	557.4
614.2	556.1
614.4	554.6
614.6	553.2
614.8	551.5
615.0	547.9
615.2	542.3
615.4	537.4
615.6	535.4
615.8	533.5
616.0	530.4
616.2	527.7
616.4	528.2
616.6	525.3
616.8	525.7
617.0	523.2
617.2	518.3
617.4	511.6
617.6	509.6
617.8	505.2
618.0	505.7
618.2	505.0
618.4	502.9
618.6	498.2
618.8	496.8
619.0	493.2
619.2	490.4
619.4	489.3
619.6	485.3
619.8	482.5
620.0	481.3
620.2	480.8
620.4	477.2
620.6	473.6
620.8	469.0
621.0	467.6
621.2	465.5
621.4	464.9
621.6	463.5
621.8	458.4
622.0	454.3
622.2	450.7
622.4	448.1
622.6	447.2
622.8	446.3
623.0	444.1
623.2	439.4
623.4	437.8
623.6	435.4
623.8	435.1
624.0	430.8
624.2	428.8
624.4	424.6
624.6	424.5
624.8	422.0
625.0	419.7
625.2	415.4
625.4	412.8
625.6	412.4
625.8	410.1
626.0	408.0
626.2	404.6
626.4	402.2
626.6	399.6
626.8	398.9
627.0	395.6
627.2	394.5
627.4	395.2
627.6	393.3
627.8	389.7
628.0	385.1
628.2	379.3
628.4	376.8
628.6	376.3
628.8	376.2
629.0	376.2
629.2	373.9
629.4	372.0
629.6	368.7
629.8	365.8
630.0	364.1
630.2	361.4
630.4	361.4
630.6	360.6
630.8	360.5
631.0	358.6
631.2	356.6
631.4	352.8
631.6	352.0
631.8	346.8
632.0	344.4
632.2	337.2
632.4	334.5
632.6	331.9
632.8	332.5
633.0	334.1
633.2	334.8
633.4	331.0
633.6	327.4
633.8	324.0
634.0	323.4
634.2	323.1
634.4	320.9
634.6	317.2
634.8	312.8
635.0	311.0
635.2	310.6
635.4	307.8
635.6	307.6
635.8	306.7
636.0	306.4
636.2	303.7
636.4	302.3
636.6	299.7
636.8	298.7
637.0	296.3
637.2	294.4
637.4	290.6
637.6	289.2
637.8	289.5
638.0	289.3
638.2	290.8
638.4	288.2
638.6	283.9
638.8	281.0
639.0	278.4
639.2	277.2
639.4	280.5
639.6	277.2
639.8	273.7
640.0	272.8
640.2	269.4
640.4	267.0
640.6	266.1
640.8	262.3
641.0	264.2
641.2	263.7
641.4	262.6
641.6	261.1
641.8	256.6
642.0	254.3
642.2	255.6
642.4	253.0
642.6	249.9
642.8	248.1
643.0	245.3
643.2	244.9
643.4	245.1
643.6	244.7
643.8	241.6
644.0	239.6
644.2	238.5
644.4	238.0
644.6	238.8
644.8	239.1
645.0	237.4
645.2	236.0
645.4	233.3
645.6	230.5
645.8	228.8
646.0	227.1
646.2	225.1
646.4	224.8
646.6	223.8
646.8	221.3
647.0	220.2
647.2	218.8
647.4	216.4
647.6	215.9
647.8	214.4
648.0	212.9
648.2	212.4
648.4	211.4
648.6	210.0
648.8	207.9
649.0	204.0
649.2	203.2
649.4	203.3
649.6	201.5
649.8	200.7
650.0	198.6
650.2	198.2
650.4	197.5
650.6	195.7
650.8	192.2
651.0	190.4
651.2	190.6
651.4	192.6
651.6	192.1
651.8	191.3
652.0	190.7
652.2	188.5
652.4	187.0
652.6	185.4
652.8	182.5
653.0	181.8
653.2	180.9
653.4	178.8
653.6	177.0
653.8	175.1
654.0	175.8
654.2	175.9
654.4	175.1
654.6	173.8
654.8	172.1
655.0	169.9
655.2	171.0
655.4	170.2
655.6	168.6
655.8	167.1
656.0	166.0
656.2	164.6
656.4	163.6
656.6	162.8
656.8	162.1
657.0	162.6
657.2	163.0
657.4	160.5
657.6	157.7
657.8	155.1
658.0	153.9
658.2	154.6
658.4	155.2
658.6	152.8
658.8	152.0
659.0	150.2
659.2	148.8
659.4	148.9
659.6	147.9
659.8	145.9
660.0	146.7
660.2	145.0
660.4	143.9
660.6	142.7
660.8	141.2
661.0	139.7
661.2	138.6
661.4	137.7
661.6	138.5
661.8	137.8
662.0	138.3
662.2	137.9
662.4	135.3
662.6	133.4
662.8	132.3
663.0	130.8
663.2	130.0
663.4	129.3
663.6	128.1
663.8	126.8
664.0	125.9
664.2	127.1
664.4	127.1
664.6	126.4
664.8	125.9
665.0	124.5
665.2	122.7
665.4	122.3
665.6	121.9
665.8	120.7
666.0	119.9
666.2	119.4
666.4	118.8
666.6	118.1
666.8	117.1
667.0	114.2
667.2	112.6
667.4	112.8
667.6	112.3
667.8	113.1
668.0	112.7
668.2	110.6
668.4	110.1
668.6	110.1
668.8	108.8
669.0	108.9
669.2	108.4
669.4	106.7
669.6	106.0
669.8	106.2
670.0	106.5
670.2	106.1
670.4	105.2
670.6	103.4
670.8	101.5
671.0	100.0
671.2	99.99
671.4	100.0
671.6	99.61
671.8	99.14
672.0	98.70
672.2	98.19
672.4	97.69
672.6	97.08
672.8	96.84
673.0	96.30
673.2	95.96
673.4	95.34
673.6	93.57
673.8	91.26
674.0	90.27
674.2	89.25
674.4	89.08
674.6	88.86
674.8	89.46
675.0	90.31
675.2	90.15
675.4	89.32
675.6	88.37
675.8	86.53
676.0	85.79
676.2	85.77
676.4	85.16
676.6	85.32
676.8	84.34
677.0	83.27
677.2	81.87
677.4	79.63
677.6	78.95
677.8	78.55
678.0	78.44
678.2	78.13
678.4	78.55
678.6	77.41
678.8	77.42
679.0	76.06
679.2	76.69
679.4	77.18
679.6	77.67
679.8	76.45
680.0	76.03
680.2	74.94
680.4	74.76
680.6	74.89
680.8	73.80
681.0	72.56
681.2	71.99
681.4	71.56
681.6	71.27
681.8	70.53
682.0	69.68
682.2	69.19
682.4	68.60
682.6	68.54
682.8	68.74
683.0	68.26
683.2	67.76
683.4	67.24
683.6	67.04
683.8	66.36
684.0	66.52
684.2	66.62
684.4	65.53
684.6	64.36
684.8	63.27
685.0	61.96
685.2	61.68
685.4	61.79
685.6	61.71
685.8	61.45
686.0	61.22
686.2	60.66
686.4	59.97
686.6	60.26
686.8	59.64
687.0	58.63
687.2	58.26
687.4	57.82
687.6	58.12
687.8	59.46
688.0	59.04
688.2	58.49
688.4	56.82
688.6	56.75
688.8	56.04
689.0	55.07
689.2	54.03
689.4	54.19
689.6	53.37
689.8	54.23
690.0	53.88
690.2	52.37
690.4	51.80
690.6	51.85
690.8	51.63
691.0	51.19
691.2	50.91
691.4	50.85
691.6	51.12
691.8	49.98
692.0	49.31
692.2	48.72
692.4	48.83
692.6	49.56
692.8	50.17
693.0	49.88
693.2	49.67
693.4	49.23
693.6	48.55
693.8	47.73
694.0	47.46
694.2	47.06
694.4	46.97
694.6	45.71
694.8	45.20
695.0	44.53
695.2	44.91
695.4	45.15
695.6	45.39
695.8	44.36
696.0	44.25
696.2	43.35
696.4	43.65
696.6	43.57
696.8	43.28
697.0	42.18
697.2	41.98
697.4	40.90
697.6	40.92
697.8	41.53
698.0	41.49
698.2	41.66
698.4	41.89
698.6	41.31
698.8	40.73
699.0	40.27
699.2	39.02
699.4	39.16
699.6	38.98
699.8	39.20
700.0	39.45
700.2	39.20
700.4	38.57
700.6	38.30
700.8	38.49
701.0	38.61
701.2	38.51
701.4	38.44
701.6	37.86
701.8	36.87
702.0	37.20
702.2	37.09
702.4	36.78
702.6	37.20
702.8	36.36
703.0	35.55
703.2	35.35
703.4	35.96
703.6	36.22
703.8	36.11
704.0	34.98
704.2	34.05
704.4	33.26
704.6	33.49
704.8	34.14
705.0	34.42
705.2	34.33
705.4	33.75
705.6	33.08
705.8	32.66
706.0	32.95
706.2	33.45
706.4	33.48
706.6	33.72
706.8	32.79
707.0	31.76
707.2	30.80
707.4	30.93
707.6	31.23
707.8	32.22
708.0	31.88
708.2	31.90
708.4	31.05
708.6	30.66
708.8	29.69
709.0	29.33
709.2	28.99
709.4	29.81
709.6	29.85
709.8	29.80
710.0	29.60
710.2	29.38
710.4	28.63
710.6	28.18
710.8	27.12
711.0	26.81
711.2	27.64
711.4	28.10
711.6	28.01
711.8	27.58
712.0	26.86
712.2	26.08
712.4	26.31
712.6	26.46
712.8	27.27
713.0	27.98
713.2	28.01
713.4	27.31
713.6	26.77
713.8	25.95
714.0	25.36
714.2	25.18
714.4	24.44
714.6	24.15
714.8	24.23
715.0	24.23
715.2	24.50
715.4	25.42
715.6	25.50
715.8	25.17
716.0	24.69
716.2	23.69
716.4	23.82
716.6	23.67
716.8	23.67
717.0	23.62
717.2	22.88
717.4	22.60
717.6	22.65
717.8	22.77
718.0	22.72
718.2	22.23
718.4	21.40
718.6	20.62
718.8	20.04
719.0	20.89
719.2	21.16
719.4	20.79
719.6	20.94
719.8	20.80
720.0	20.89
720.2	21.38
720.4	21.33
720.6	20.85
720.8	20.81
721.0	20.40
721.2	20.22
721.4	20.35
721.6	19.99
721.8	20.19
722.0	20.70
722.2	20.35
722.4	20.06
722.6	19.96
722.8	19.23
723.0	18.42
723.2	18.35
723.4	18.35
723.6	17.96
723.8	17.96
724.0	18.42
724.2	18.16
724.4	17.84
724.6	17.97
724.8	17.54
725.0	17.44
725.2	17.71
725.4	17.67
725.6	17.25
725.8	16.98
726.0	16.37
726.2	15.76
726.4	15.56
726.6	15.86
726.8	15.97
727.0	15.98
727.2	15.95
727.4	15.81
727.6	15.97
727.8	16.02
728.0	15.50
728.2	15.36
728.4	15.25
728.6	15.32
728.8	15.57
729.0	15.63
729.2	15.15
729.4	15.15
729.6	14.87
729.8	15.02
730.0	15.02
730.2	15.04
730.4	14.76
730.6	14.38
730.8	13.65
731.0	13.36
731.2	13.28
731.4	13.44
731.6	13.62
731.8	13.86
732.0	13.47
732.2	13.13
732.4	12.88
732.6	12.45
732.8	12.25
733.0	12.74
733.2	12.78
733.4	12.86
733.6	13.01
733.8	12.77
734.0	12.69
734.2	12.82
734.4	12.82
734.6	12.86
734.8	12.72
735.0	12.37
735.2	11.83
735.4	11.83
735.6	11.66
735.8	11.48
736.0	11.31
736.2	11.42
736.4	11.11
736.6	11.48
736.8	11.41
737.0	11.01
737.2	11.51
737.4	11.74
737.6	11.32
737.8	11.35
738.0	11.11
738.2	10.68
738.4	11.42
738.6	11.57
738.8	11.28
739.0	11.02
739.2	10.31
739.4	9.962
739.6	10.09
739.8	10.14
740.0	10.41
740.2	10.63
740.4	10.17
740.6	9.664
740.8	9.045
741.0	8.815
741.2	9.082
741.4	9.674
741.6	9.815
741.8	9.694
742.0	9.460
742.2	9.252
742.4	9.465
742.6	9.560
742.8	9.666
743.0	9.511
743.2	9.472
743.4	9.094
743.6	9.140
743.8	8.775
744.0	8.515
744.2	8.237
744.4	8.655
744.6	9.000
744.8	9.012
745.0	9.129
745.2	8.926
745.4	8.629
745.6	8.438
745.8	8.349
746.0	8.036
746.2	8.181
746.4	7.929
746.6	7.987
746.8	7.711
747.0	7.806
747.2	8.117
747.4	8.240
747.6	8.048
747.8	8.114
748.0	7.401
748.2	7.402
748.4	7.871
748.6	7.977
748.8	8.027
749.0	7.963
749.2	7.241
749.4	7.341
749.6	7.682
749.8	7.571
750.0	7.735
750.2	7.712
750.4	7.420
750.6	7.321
750.8	7.260
751.0	7.031
751.2	6.994
751.4	6.944
751.6	6.786
751.8	6.744
752.0	6.849
752.2	6.771
752.4	6.565
752.6	6.575
752.8	6.658
753.0	6.818
753.2	7.004
753.4	6.906
753.6	6.767
753.8	6.593
754.0	6.484
754.2	6.473
754.4	6.434
754.6	6.359
754.8	6.317
755.0	6.086
755.2	5.924
755.4	5.802
755.6	5.901
755.8	6.046
756.0	6.002
756.2	5.930
756.4	5.841
756.6	5.653
756.8	5.917
757.0	6.254
757.2	6.415
757.4	6.282
757.6	5.953
757.8	5.501
758.0	5.213
758.2	5.602
758.4	5.912
758.6	6.031
758.8	5.915
759.0	5.390
759.2	5.103
759.4	5.469
759.6	5.619
759.8	5.857
760.0	6.004
760.2	5.670
760.4	5.433
760.6	5.303
760.8	5.132
761.0	5.033
761.2	5.112
761.4	5.276
761.6	5.308
761.8	5.168
762.0	5.010
762.2	4.826
762.4	4.842
762.6	5.096
762.8	5.040
763.0	4.996
763.2	4.856
763.4	4.814
763.6	5.029
763.8	4.879
764.0	4.729
764.2	4.722
764.4	4.710
764.6	4.543
764.8	4.536
765.0	4.432
765.2	4.404
765.4	4.540
765.6	4.662
765.8	4.561
766.0	4.544
766.2	4.516
766.4	4.260
766.6	4.311
766.8	4.324
767.0	4.477
767.2	4.366
767.4	4.146
767.6	4.313
767.8	4.347
768.0	4.615
768.2	4.541
768.4	4.420
768.6	4.081
768.8	3.986
769.0	3.928
769.2	4.130
769.4	4.131
769.6	4.192
769.8	3.942
770.0	3.610
770.2	3.664
770.4	3.707
770.6	3.977
770.8	4.065
771.0	3.935
771.2	3.718
771.4	3.574
771.6	3.384
771.8	3.536
772.0	3.930
772.2	3.940
772.4	4.112
772.6	3.879
772.8	3.542
773.0	3.385
773.2	3.473
773.4	3.607
773.6	3.850
773.8	3.645
774.0	3.606
774.2	3.622
774.4	3.464
774.6	3.315
774.8	3.314
775.0	3.149
775.2	3.463
775.4	3.773
775.6	3.815
775.8	3.593
776.0	3.387
776.2	3.102
776.4	3.166
776.6	3.342
776.8	3.532
777.0	3.428
777.2	3.395
777.4	3.191
777.6	3.188
777.8	3.177
778.0	3.234
778.2	3.157
778.4	3.260
778.6	3.301
778.8	3.333
779.0	2.985
779.2	2.874
779.4	2.828
779.6	3.058
779.8	3.255
780.0	3.319
780.2	3.098
780.4	2.940
780.6	3.023
780.8	3.043
781.0	2.940
781.2	2.974
781.4	2.923
781.6	2.959
781.8	3.214
782.0	3.286
782.2	3.335
782.4	3.415
782.6	3.143
782.8	3.024
783.0	2.915
783.2	3.027
783.4	3.103
783.6	3.167
783.8	2.940
784.0	3.007
784.2	3.105
784.4	3.281
784.6	3.329
784.8	3.626
785.0	3.717
785.2	3.624
785.4	3.528
785.6	3.231
785.8	2.822
786.0	3.174
786.2	3.376
786.4	3.567
786.6	3.801
786.8	3.879
787.0	3.623
787.2	3.724
787.4	3.705
787.6	3.627
787.8	3.743
788.0	4.005
788.2	3.921
788.4	3.936
788.6	4.071
788.8	3.974
789.0	4.118
789.2	4.556
789.4	4.617
789.6	4.617
789.8	4.522
790.0	4.417
790.2	4.197
790.4	4.350
790.6	4.319
790.8	4.379
791.0	4.418
791.2	4.507
791.4	4.901
791.6	5.245
791.8	5.400
792.0	5.589
792.2	5.703
792.4	5.429
792.6	5.461
792.8	5.147
793.0	4.855
793.2	4.948
793.4	5.064
793.6	5.157
793.8	5.431
794.0	5.386
794.2	5.508
794.4	5.636
794.6	5.754
794.8	6.014
795.0	6.086
795.2	5.850
795.4	5.873
795.6	5.674
795.8	5.963
796.0	6.290
796.2	6.717
796.4	6.808
796.6	7.006
796.8	6.910
797.0	6.878
797.2	6.456
797.4	6.501
797.6	6.290
797.8	6.718
798.0	6.910
798.2	6.824
798.4	6.574
798.6	6.631
798.8	6.828
799.0	7.236
799.2	7.115
799.4	6.843
799.6	6.613
799.8	6.774
800.0	7.606

