Sample:	'20211010A(EM)
File name:	B-CDS  3 300uM.FDS
Run date:	'10:42:05, 06/08/2023
Operator:	Administrator
Comment:	'

Instrument
Model:	F-4700 FL Spectrophotometer
Serial number:	2019-001
ROM Version:	5J24010 00

Instrument parameters
Measurement type:	Wavelength scan
Scan mode:	Emission
Data mode:	Fluorescence
EX WL:	350.0 nm
EM  Start WL:	370.0 nm
EM  End WL:	680.0 nm
Scan speed:	1200 nm/min
Delay:	0.0 s
EX Slit:	10.0 nm
EM Slit:	10.0 nm
PMT Voltage:	450 V
Response:	0.002 s
Corrected spectra:	Off
Shutter control:	On

Processing performed
Savitsky-Golay smoothed
Smoothing order:	3
Number of points:	7
Number of times:	1

Peak integration
Integration method:	Rectangular
Sensitivity:	1
Threshold:	1.000

Peaks
No.	Start(nm)	Apex(nm)	End(nm)	Height(Data)	Valley(nm)	Valley(Data)
1	370.0	474.2	475.6	2107	475.6	2100
2	475.6	479.2	480.6	2128	480.6	2112
3	480.6	481.6	482.4	2130	482.4	2112
4	482.4	484.2	680.0	2118	680.0	14.58

Data points
nm	Data
370.0	3.174
370.2	3.195
370.4	3.089
370.6	2.943
370.8	2.922
371.0	2.934
371.2	2.921
371.4	2.991
371.6	2.856
371.8	2.904
372.0	3.004
372.2	3.034
372.4	3.037
372.6	2.907
372.8	2.846
373.0	2.973
373.2	3.074
373.4	3.192
373.6	3.163
373.8	3.063
374.0	3.036
374.2	3.014
374.4	3.085
374.6	3.237
374.8	3.238
375.0	3.347
375.2	3.434
375.4	3.438
375.6	3.414
375.8	3.372
376.0	3.264
376.2	3.290
376.4	3.385
376.6	3.405
376.8	3.332
377.0	3.303
377.2	3.409
377.4	3.336
377.6	3.349
377.8	3.229
378.0	3.150
378.2	3.275
378.4	3.536
378.6	3.505
378.8	3.532
379.0	3.389
379.2	3.273
379.4	3.379
379.6	3.404
379.8	3.460
380.0	3.686
380.2	3.629
380.4	3.478
380.6	3.398
380.8	3.219
381.0	3.395
381.2	3.679
381.4	3.785
381.6	3.686
381.8	3.781
382.0	3.853
382.2	3.855
382.4	3.919
382.6	4.007
382.8	3.926
383.0	4.118
383.2	4.246
383.4	4.051
383.6	4.106
383.8	4.031
384.0	4.005
384.2	4.136
384.4	4.243
384.6	4.165
384.8	4.348
385.0	4.378
385.2	4.513
385.4	4.620
385.6	4.539
385.8	4.661
386.0	4.898
386.2	5.055
386.4	5.161
386.6	5.141
386.8	4.970
387.0	5.100
387.2	5.367
387.4	5.556
387.6	5.583
387.8	5.662
388.0	5.686
388.2	5.716
388.4	5.864
388.6	5.892
388.8	5.732
389.0	6.031
389.2	6.235
389.4	6.490
389.6	6.651
389.8	6.614
390.0	6.572
390.2	6.850
390.4	6.960
390.6	7.198
390.8	7.228
391.0	7.296
391.2	7.458
391.4	7.634
391.6	8.022
391.8	8.489
392.0	8.837
392.2	9.101
392.4	9.278
392.6	9.467
392.8	10.03
393.0	10.52
393.2	10.67
393.4	10.62
393.6	10.65
393.8	11.11
394.0	11.84
394.2	12.32
394.4	12.52
394.6	12.48
394.8	12.64
395.0	13.16
395.2	13.55
395.4	13.79
395.6	14.39
395.8	14.91
396.0	15.66
396.2	16.43
396.4	16.94
396.6	17.33
396.8	17.76
397.0	17.82
397.2	18.12
397.4	18.79
397.6	19.65
397.8	20.85
398.0	21.44
398.2	22.09
398.4	22.36
398.6	23.05
398.8	23.82
399.0	24.90
399.2	25.68
399.4	26.78
399.6	27.63
399.8	28.65
400.0	29.39
400.2	30.32
400.4	31.58
400.6	32.70
400.8	33.57
401.0	34.30
401.2	35.73
401.4	37.29
401.6	38.59
401.8	39.94
402.0	41.02
402.2	42.32
402.4	43.98
402.6	46.27
402.8	47.69
403.0	49.34
403.2	51.10
403.4	52.78
403.6	54.13
403.8	55.84
404.0	57.32
404.2	59.17
404.4	60.78
404.6	61.94
404.8	64.03
405.0	65.81
405.2	68.69
405.4	72.73
405.6	76.09
405.8	78.03
406.0	79.56
406.2	81.70
406.4	83.82
406.6	86.45
406.8	89.63
407.0	92.28
407.2	94.49
407.4	98.46
407.6	101.1
407.8	103.7
408.0	106.6
408.2	109.9
408.4	113.0
408.6	117.9
408.8	121.9
409.0	125.4
409.2	128.7
409.4	132.2
409.6	135.6
409.8	140.3
410.0	144.6
410.2	148.3
410.4	152.4
410.6	156.1
410.8	161.0
411.0	165.0
411.2	169.5
411.4	173.8
411.6	177.6
411.8	182.3
412.0	187.2
412.2	191.2
412.4	196.2
412.6	202.2
412.8	208.1
413.0	215.8
413.2	221.0
413.4	226.0
413.6	230.2
413.8	235.9
414.0	241.3
414.2	247.6
414.4	252.6
414.6	259.1
414.8	264.6
415.0	271.4
415.2	276.7
415.4	282.2
415.6	286.9
415.8	294.4
416.0	302.1
416.2	310.1
416.4	317.7
416.6	325.0
416.8	329.6
417.0	336.1
417.2	341.1
417.4	347.0
417.6	354.4
417.8	361.9
418.0	369.3
418.2	377.4
418.4	384.7
418.6	392.2
418.8	398.2
419.0	405.8
419.2	413.4
419.4	422.0
419.6	432.4
419.8	441.6
420.0	449.9
420.2	460.3
420.4	466.8
420.6	473.8
420.8	480.5
421.0	486.4
421.2	494.4
421.4	503.7
421.6	511.9
421.8	521.0
422.0	528.7
422.2	538.7
422.4	546.8
422.6	555.7
422.8	566.8
423.0	578.4
423.2	586.3
423.4	596.2
423.6	601.3
423.8	607.9
424.0	615.1
424.2	626.0
424.4	634.0
424.6	642.3
424.8	651.8
425.0	663.6
425.2	672.9
425.4	682.7
425.6	691.6
425.8	698.9
426.0	707.1
426.2	718.8
426.4	728.9
426.6	736.8
426.8	744.5
427.0	753.6
427.2	760.3
427.4	770.6
427.6	781.1
427.8	791.4
428.0	798.6
428.2	807.7
428.4	815.2
428.6	821.9
428.8	830.8
429.0	840.4
429.2	848.9
429.4	859.1
429.6	871.3
429.8	880.7
430.0	888.9
430.2	899.7
430.4	905.5
430.6	914.3
430.8	923.7
431.0	932.4
431.2	942.9
431.4	956.1
431.6	963.2
431.8	970.7
432.0	979.4
432.2	988.0
432.4	995.9
432.6	1005
432.8	1013
433.0	1018
433.2	1029
433.4	1039
433.6	1047
433.8	1058
434.0	1068
434.2	1074
434.4	1084
434.6	1091
434.8	1098
435.0	1105
435.2	1111
435.4	1120
435.6	1129
435.8	1140
436.0	1148
436.2	1155
436.4	1164
436.6	1174
436.8	1182
437.0	1189
437.2	1196
437.4	1204
437.6	1212
437.8	1219
438.0	1228
438.2	1232
438.4	1240
438.6	1249
438.8	1252
439.0	1259
439.2	1265
439.4	1272
439.6	1282
439.8	1294
440.0	1299
440.2	1306
440.4	1312
440.6	1320
440.8	1328
441.0	1341
441.2	1345
441.4	1348
441.6	1356
441.8	1363
442.0	1373
442.2	1383
442.4	1386
442.6	1391
442.8	1393
443.0	1395
443.2	1403
443.4	1409
443.6	1416
443.8	1429
444.0	1434
444.2	1442
444.4	1450
444.6	1454
444.8	1461
445.0	1466
445.2	1469
445.4	1475
445.6	1481
445.8	1487
446.0	1493
446.2	1500
446.4	1507
446.6	1512
446.8	1517
447.0	1524
447.2	1529
447.4	1538
447.6	1549
447.8	1553
448.0	1558
448.2	1561
448.4	1564
448.6	1568
448.8	1574
449.0	1578
449.2	1585
449.4	1592
449.6	1601
449.8	1606
450.0	1607
450.2	1611
450.4	1612
450.6	1616
450.8	1625
451.0	1632
451.2	1635
451.4	1645
451.6	1651
451.8	1658
452.0	1665
452.2	1676
452.4	1682
452.6	1686
452.8	1689
453.0	1692
453.2	1693
453.4	1700
453.6	1705
453.8	1707
454.0	1710
454.2	1715
454.4	1718
454.6	1726
454.8	1734
455.0	1742
455.2	1747
455.4	1754
455.6	1761
455.8	1769
456.0	1771
456.2	1778
456.4	1783
456.6	1788
456.8	1794
457.0	1798
457.2	1797
457.4	1800
457.6	1807
457.8	1813
458.0	1821
458.2	1830
458.4	1833
458.6	1834
458.8	1837
459.0	1841
459.2	1848
459.4	1859
459.6	1864
459.8	1869
460.0	1871
460.2	1874
460.4	1878
460.6	1886
460.8	1889
461.0	1897
461.2	1902
461.4	1910
461.6	1914
461.8	1916
462.0	1918
462.2	1920
462.4	1923
462.6	1929
462.8	1931
463.0	1939
463.2	1947
463.4	1950
463.6	1955
463.8	1959
464.0	1958
464.2	1962
464.4	1969
464.6	1973
464.8	1979
465.0	1982
465.2	1981
465.4	1984
465.6	1988
465.8	1990
466.0	1996
466.2	1998
466.4	2006
466.6	2011
466.8	2013
467.0	2013
467.2	2015
467.4	2013
467.6	2021
467.8	2027
468.0	2031
468.2	2036
468.4	2044
468.6	2042
468.8	2047
469.0	2048
469.2	2049
469.4	2053
469.6	2054
469.8	2054
470.0	2054
470.2	2056
470.4	2060
470.6	2068
470.8	2069
471.0	2072
471.2	2069
471.4	2069
471.6	2068
471.8	2073
472.0	2079
472.2	2085
472.4	2090
472.6	2095
472.8	2096
473.0	2093
473.2	2093
473.4	2091
473.6	2095
473.8	2101
474.0	2107
474.2	2107
474.4	2103
474.6	2102
474.8	2102
475.0	2102
475.2	2106
475.4	2106
475.6	2100
475.8	2102
476.0	2101
476.2	2105
476.4	2114
476.6	2120
476.8	2123
477.0	2122
477.2	2120
477.4	2118
477.6	2118
477.8	2120
478.0	2122
478.2	2117
478.4	2121
478.6	2120
478.8	2122
479.0	2126
479.2	2128
479.4	2126
479.6	2122
479.8	2116
480.0	2117
480.2	2112
480.4	2112
480.6	2112
480.8	2112
481.0	2120
481.2	2130
481.4	2129
481.6	2130
481.8	2125
482.0	2120
482.2	2116
482.4	2112
482.6	2114
482.8	2117
483.0	2119
483.2	2117
483.4	2114
483.6	2115
483.8	2116
484.0	2117
484.2	2118
484.4	2115
484.6	2115
484.8	2116
485.0	2112
485.2	2110
485.4	2110
485.6	2111
485.8	2111
486.0	2113
486.2	2109
486.4	2104
486.6	2099
486.8	2097
487.0	2094
487.2	2098
487.4	2099
487.6	2096
487.8	2097
488.0	2098
488.2	2095
488.4	2093
488.6	2089
488.8	2081
489.0	2083
489.2	2081
489.4	2078
489.6	2075
489.8	2076
490.0	2074
490.2	2071
490.4	2064
490.6	2064
490.8	2063
491.0	2065
491.2	2060
491.4	2055
491.6	2046
491.8	2041
492.0	2039
492.2	2038
492.4	2035
492.6	2039
492.8	2035
493.0	2029
493.2	2028
493.4	2022
493.6	2016
493.8	2018
494.0	2014
494.2	2016
494.4	2019
494.6	2015
494.8	2003
495.0	1995
495.2	1985
495.4	1983
495.6	1986
495.8	1988
496.0	1984
496.2	1978
496.4	1970
496.6	1964
496.8	1959
497.0	1958
497.2	1958
497.4	1955
497.6	1949
497.8	1943
498.0	1939
498.2	1932
498.4	1927
498.6	1927
498.8	1922
499.0	1918
499.2	1914
499.4	1905
499.6	1901
499.8	1899
500.0	1897
500.2	1891
500.4	1884
500.6	1877
500.8	1872
501.0	1865
501.2	1861
501.4	1853
501.6	1846
501.8	1841
502.0	1837
502.2	1830
502.4	1828
502.6	1824
502.8	1819
503.0	1814
503.2	1808
503.4	1802
503.6	1802
503.8	1799
504.0	1794
504.2	1789
504.4	1780
504.6	1775
504.8	1770
505.0	1767
505.2	1761
505.4	1760
505.6	1755
505.8	1747
506.0	1737
506.2	1731
506.4	1724
506.6	1721
506.8	1717
507.0	1711
507.2	1705
507.4	1699
507.6	1696
507.8	1691
508.0	1686
508.2	1681
508.4	1674
508.6	1664
508.8	1657
509.0	1652
509.2	1650
509.4	1651
509.6	1647
509.8	1640
510.0	1632
510.2	1622
510.4	1615
510.6	1615
510.8	1611
511.0	1607
511.2	1600
511.4	1588
511.6	1581
511.8	1577
512.0	1571
512.2	1566
512.4	1561
512.6	1554
512.8	1550
513.0	1544
513.2	1540
513.4	1532
513.6	1527
513.8	1522
514.0	1515
514.2	1513
514.4	1510
514.6	1502
514.8	1498
515.0	1493
515.2	1487
515.4	1486
515.6	1482
515.8	1476
516.0	1469
516.2	1464
516.4	1456
516.6	1449
516.8	1444
517.0	1441
517.2	1432
517.4	1427
517.6	1417
517.8	1411
518.0	1408
518.2	1409
518.4	1404
518.6	1402
518.8	1394
519.0	1385
519.2	1379
519.4	1377
519.6	1372
519.8	1366
520.0	1362
520.2	1354
520.4	1347
520.6	1342
520.8	1336
521.0	1328
521.2	1327
521.4	1324
521.6	1318
521.8	1311
522.0	1308
522.2	1303
522.4	1300
522.6	1296
522.8	1290
523.0	1282
523.2	1281
523.4	1279
523.6	1279
523.8	1272
524.0	1264
524.2	1254
524.4	1248
524.6	1245
524.8	1243
525.0	1236
525.2	1232
525.4	1227
525.6	1221
525.8	1217
526.0	1212
526.2	1205
526.4	1201
526.6	1197
526.8	1196
527.0	1192
527.2	1189
527.4	1183
527.6	1178
527.8	1174
528.0	1169
528.2	1164
528.4	1160
528.6	1155
528.8	1150
529.0	1144
529.2	1138
529.4	1133
529.6	1129
529.8	1126
530.0	1121
530.2	1116
530.4	1115
530.6	1110
530.8	1104
531.0	1099
531.2	1092
531.4	1086
531.6	1084
531.8	1080
532.0	1076
532.2	1074
532.4	1072
532.6	1068
532.8	1062
533.0	1057
533.2	1052
533.4	1048
533.6	1045
533.8	1042
534.0	1036
534.2	1031
534.4	1023
534.6	1016
534.8	1013
535.0	1009
535.2	1007
535.4	1003
535.6	998.9
535.8	994.6
536.0	989.4
536.2	987.1
536.4	982.5
536.6	979.5
536.8	975.7
537.0	973.1
537.2	966.9
537.4	961.4
537.6	956.0
537.8	952.4
538.0	947.5
538.2	946.5
538.4	941.0
538.6	936.2
538.8	931.3
539.0	926.5
539.2	919.3
539.4	913.1
539.6	909.1
539.8	908.4
540.0	908.1
540.2	906.8
540.4	902.0
540.6	894.3
540.8	889.9
541.0	881.8
541.2	878.4
541.4	873.5
541.6	871.8
541.8	870.1
542.0	865.4
542.2	859.8
542.4	855.5
542.6	851.6
542.8	849.6
543.0	846.2
543.2	839.4
543.4	835.4
543.6	829.7
543.8	827.6
544.0	825.6
544.2	822.8
544.4	818.5
544.6	813.4
544.8	807.4
545.0	802.5
545.2	799.9
545.4	795.4
545.6	790.8
545.8	786.5
546.0	783.5
546.2	781.0
546.4	777.1
546.6	771.8
546.8	766.1
547.0	759.3
547.2	757.4
547.4	755.0
547.6	751.9
547.8	749.8
548.0	746.0
548.2	741.4
548.4	739.2
548.6	734.7
548.8	730.6
549.0	726.2
549.2	722.6
549.4	717.9
549.6	714.3
549.8	711.4
550.0	708.0
550.2	706.3
550.4	703.7
550.6	699.3
550.8	695.7
551.0	692.7
551.2	687.2
551.4	683.1
551.6	678.8
551.8	674.7
552.0	671.1
552.2	668.0
552.4	663.2
552.6	660.4
552.8	657.7
553.0	652.7
553.2	649.2
553.4	643.4
553.6	640.8
553.8	638.4
554.0	635.8
554.2	634.0
554.4	632.0
554.6	626.5
554.8	625.4
555.0	621.2
555.2	617.5
555.4	615.3
555.6	611.5
555.8	605.1
556.0	601.0
556.2	596.9
556.4	594.5
556.6	594.4
556.8	593.7
557.0	589.5
557.2	585.6
557.4	582.1
557.6	576.6
557.8	574.0
558.0	572.0
558.2	567.3
558.4	564.7
558.6	562.8
558.8	559.5
559.0	558.6
559.2	557.2
559.4	551.9
559.6	547.8
559.8	546.6
560.0	544.5
560.2	542.3
560.4	537.7
560.6	532.9
560.8	530.8
561.0	530.4
561.2	527.7
561.4	525.2
561.6	521.8
561.8	518.8
562.0	517.5
562.2	512.9
562.4	510.9
562.6	509.5
562.8	507.2
563.0	502.7
563.2	499.2
563.4	493.2
563.6	491.9
563.8	491.0
564.0	490.0
564.2	486.1
564.4	483.3
564.6	479.8
564.8	475.7
565.0	472.3
565.2	471.3
565.4	469.7
565.6	467.9
565.8	464.4
566.0	459.5
566.2	456.7
566.4	455.1
566.6	454.7
566.8	452.4
567.0	450.9
567.2	447.5
567.4	443.6
567.6	439.1
567.8	436.6
568.0	434.7
568.2	433.7
568.4	432.0
568.6	429.1
568.8	426.3
569.0	424.7
569.2	423.6
569.4	422.2
569.6	420.9
569.8	418.0
570.0	416.6
570.2	414.8
570.4	413.7
570.6	413.3
570.8	410.0
571.0	403.1
571.2	399.0
571.4	396.3
571.6	396.6
571.8	397.1
572.0	395.1
572.2	389.7
572.4	386.0
572.6	384.4
572.8	382.2
573.0	381.0
573.2	380.5
573.4	377.0
573.6	375.1
573.8	373.3
574.0	370.8
574.2	370.7
574.4	369.9
574.6	366.0
574.8	364.3
575.0	361.3
575.2	360.7
575.4	360.8
575.6	359.0
575.8	356.9
576.0	354.8
576.2	352.5
576.4	350.9
576.6	349.4
576.8	347.6
577.0	346.0
577.2	342.6
577.4	341.3
577.6	339.7
577.8	338.1
578.0	336.4
578.2	334.3
578.4	329.7
578.6	327.2
578.8	326.3
579.0	325.4
579.2	324.3
579.4	323.4
579.6	320.8
579.8	317.3
580.0	315.0
580.2	314.7
580.4	314.1
580.6	313.7
580.8	311.4
581.0	307.6
581.2	304.7
581.4	305.3
581.6	303.8
581.8	301.7
582.0	298.8
582.2	296.5
582.4	295.1
582.6	294.6
582.8	291.3
583.0	290.1
583.2	287.9
583.4	287.1
583.6	287.7
583.8	286.7
584.0	284.8
584.2	284.2
584.4	281.0
584.6	279.2
584.8	278.4
585.0	276.8
585.2	274.8
585.4	275.1
585.6	274.0
585.8	272.9
586.0	270.5
586.2	268.1
586.4	265.0
586.6	263.7
586.8	261.4
587.0	260.0
587.2	257.1
587.4	255.6
587.6	254.8
587.8	253.6
588.0	253.5
588.2	253.3
588.4	251.1
588.6	249.7
588.8	249.1
589.0	246.6
589.2	245.3
589.4	243.0
589.6	240.3
589.8	238.8
590.0	237.8
590.2	238.6
590.4	238.7
590.6	237.8
590.8	236.1
591.0	233.5
591.2	230.0
591.4	229.2
591.6	227.9
591.8	225.4
592.0	225.0
592.2	224.4
592.4	224.0
592.6	223.0
592.8	221.6
593.0	218.7
593.2	217.5
593.4	216.2
593.6	215.6
593.8	215.0
594.0	214.2
594.2	213.4
594.4	211.1
594.6	209.0
594.8	208.3
595.0	207.8
595.2	207.3
595.4	205.9
595.6	203.0
595.8	201.4
596.0	199.9
596.2	198.7
596.4	198.8
596.6	199.0
596.8	198.7
597.0	197.4
597.2	194.9
597.4	193.0
597.6	191.4
597.8	191.0
598.0	189.8
598.2	187.2
598.4	185.5
598.6	185.1
598.8	183.7
599.0	183.3
599.2	182.5
599.4	180.7
599.6	179.6
599.8	179.0
600.0	178.3
600.2	177.8
600.4	177.4
600.6	176.3
600.8	174.6
601.0	173.1
601.2	172.7
601.4	172.5
601.6	172.4
601.8	172.3
602.0	170.2
602.2	168.7
602.4	167.9
602.6	165.6
602.8	163.5
603.0	162.1
603.2	161.1
603.4	160.6
603.6	160.9
603.8	159.7
604.0	159.9
604.2	159.4
604.4	159.9
604.6	158.2
604.8	156.7
605.0	155.5
605.2	154.7
605.4	153.2
605.6	152.5
605.8	150.9
606.0	149.0
606.2	147.6
606.4	147.3
606.6	147.3
606.8	147.3
607.0	146.7
607.2	145.4
607.4	144.5
607.6	145.3
607.8	145.1
608.0	143.0
608.2	141.2
608.4	139.9
608.6	139.1
608.8	139.3
609.0	138.5
609.2	137.3
609.4	135.9
609.6	134.8
609.8	133.7
610.0	133.9
610.2	133.1
610.4	131.9
610.6	129.4
610.8	128.2
611.0	127.5
611.2	127.7
611.4	127.1
611.6	126.5
611.8	125.6
612.0	125.0
612.2	124.9
612.4	124.2
612.6	123.2
612.8	122.4
613.0	121.5
613.2	120.5
613.4	119.2
613.6	118.8
613.8	118.9
614.0	118.5
614.2	118.3
614.4	117.5
614.6	116.3
614.8	115.3
615.0	114.9
615.2	113.9
615.4	112.8
615.6	112.0
615.8	111.3
616.0	110.4
616.2	109.9
616.4	109.4
616.6	108.8
616.8	107.7
617.0	106.3
617.2	105.7
617.4	104.8
617.6	105.0
617.8	104.8
618.0	103.8
618.2	102.9
618.4	102.4
618.6	101.2
618.8	100.5
619.0	100.4
619.2	100.9
619.4	100.6
619.6	100.3
619.8	99.19
620.0	97.70
620.2	96.68
620.4	96.95
620.6	96.02
620.8	95.16
621.0	94.29
621.2	93.40
621.4	93.17
621.6	93.61
621.8	93.39
622.0	92.98
622.2	91.88
622.4	90.61
622.6	89.88
622.8	89.30
623.0	88.75
623.2	88.47
623.4	88.65
623.6	88.73
623.8	88.26
624.0	87.29
624.2	85.78
624.4	84.92
624.6	85.10
624.8	84.97
625.0	84.58
625.2	84.77
625.4	83.61
625.6	82.91
625.8	82.52
626.0	81.57
626.2	80.85
626.4	81.43
626.6	80.70
626.8	80.34
627.0	79.69
627.2	78.29
627.4	76.97
627.6	76.81
627.8	76.95
628.0	76.62
628.2	76.26
628.4	74.71
628.6	73.58
628.8	72.81
629.0	73.33
629.2	72.87
629.4	73.03
629.6	72.23
629.8	71.39
630.0	71.06
630.2	71.58
630.4	71.38
630.6	71.12
630.8	70.17
631.0	68.75
631.2	67.94
631.4	67.58
631.6	67.90
631.8	67.99
632.0	67.75
632.2	66.43
632.4	65.04
632.6	63.85
632.8	63.89
633.0	63.88
633.2	64.07
633.4	63.56
633.6	63.59
633.8	62.69
634.0	63.10
634.2	62.82
634.4	62.54
634.6	62.12
634.8	61.94
635.0	61.24
635.2	60.76
635.4	60.09
635.6	59.31
635.8	58.74
636.0	58.20
636.2	58.21
636.4	58.35
636.6	58.46
636.8	57.84
637.0	57.21
637.2	56.37
637.4	55.37
637.6	55.07
637.8	55.14
638.0	55.00
638.2	54.87
638.4	54.89
638.6	54.49
638.8	54.38
639.0	54.77
639.2	54.30
639.4	53.48
639.6	52.45
639.8	51.89
640.0	51.98
640.2	51.84
640.4	51.12
640.6	50.49
640.8	49.89
641.0	49.26
641.2	49.41
641.4	49.11
641.6	49.01
641.8	49.25
642.0	49.04
642.2	48.17
642.4	47.82
642.6	47.22
642.8	47.21
643.0	47.71
643.2	47.65
643.4	47.31
643.6	46.91
643.8	45.78
644.0	44.95
644.2	44.28
644.4	44.17
644.6	43.79
644.8	44.04
645.0	43.79
645.2	43.80
645.4	43.77
645.6	43.85
645.8	43.25
646.0	42.46
646.2	41.67
646.4	40.90
646.6	40.55
646.8	41.12
647.0	40.99
647.2	40.60
647.4	40.59
647.6	40.62
647.8	40.12
648.0	40.87
648.2	40.59
648.4	40.17
648.6	39.02
648.8	38.60
649.0	37.79
649.2	38.36
649.4	38.80
649.6	38.94
649.8	38.38
650.0	38.15
650.2	37.55
650.4	36.97
650.6	36.30
650.8	35.30
651.0	35.51
651.2	36.40
651.4	36.44
651.6	36.31
651.8	34.96
652.0	34.46
652.2	34.81
652.4	35.31
652.6	34.62
652.8	33.95
653.0	32.58
653.2	32.67
653.4	32.48
653.6	32.59
653.8	32.31
654.0	32.40
654.2	32.28
654.4	32.06
654.6	31.44
654.8	31.45
655.0	31.55
655.2	31.61
655.4	31.45
655.6	31.16
655.8	30.74
656.0	30.04
656.2	30.11
656.4	29.76
656.6	29.68
656.8	29.53
657.0	29.90
657.2	30.08
657.4	30.29
657.6	29.81
657.8	29.42
658.0	28.53
658.2	28.28
658.4	28.49
658.6	28.22
658.8	27.84
659.0	27.73
659.2	27.72
659.4	27.28
659.6	26.93
659.8	26.64
660.0	26.34
660.2	26.23
660.4	26.43
660.6	26.14
660.8	25.79
661.0	25.92
661.2	25.69
661.4	25.66
661.6	25.43
661.8	25.21
662.0	25.16
662.2	25.34
662.4	24.82
662.6	24.87
662.8	24.62
663.0	24.59
663.2	24.60
663.4	24.16
663.6	23.63
663.8	23.45
664.0	23.23
664.2	23.49
664.4	23.35
664.6	22.99
664.8	22.65
665.0	22.51
665.2	22.75
665.4	23.00
665.6	23.04
665.8	22.82
666.0	22.26
666.2	22.29
666.4	22.27
666.6	22.10
666.8	22.20
667.0	21.89
667.2	21.69
667.4	21.59
667.6	21.07
667.8	20.68
668.0	20.43
668.2	20.44
668.4	20.63
668.6	20.62
668.8	20.50
669.0	20.17
669.2	19.63
669.4	19.18
669.6	18.90
669.8	19.08
670.0	19.26
670.2	19.41
670.4	19.07
670.6	18.90
670.8	18.71
671.0	18.53
671.2	18.48
671.4	18.54
671.6	18.12
671.8	18.18
672.0	18.19
672.2	17.97
672.4	18.31
672.6	18.59
672.8	18.45
673.0	18.13
673.2	17.88
673.4	17.66
673.6	17.42
673.8	17.38
674.0	17.30
674.2	17.15
674.4	16.96
674.6	16.93
674.8	16.62
675.0	16.42
675.2	16.32
675.4	16.41
675.6	16.69
675.8	16.88
676.0	16.64
676.2	16.52
676.4	15.94
676.6	15.58
676.8	15.38
677.0	15.54
677.2	15.42
677.4	15.86
677.6	15.47
677.8	15.16
678.0	15.20
678.2	15.69
678.4	15.74
678.6	15.77
678.8	15.32
679.0	15.10
679.2	15.04
679.4	14.95
679.6	14.56
679.8	14.36
680.0	14.58

