Sample:	'20211010A(EM)
File name:	B-CDS 10 100uM.FDS
Run date:	'14:41:39, 06/08/2023
Operator:	Administrator
Comment:	'

Instrument
Model:	F-4700 FL Spectrophotometer
Serial number:	2019-001
ROM Version:	5J24010 00

Instrument parameters
Measurement type:	Wavelength scan
Scan mode:	Emission
Data mode:	Fluorescence
EX WL:	350.0 nm
EM  Start WL:	370.0 nm
EM  End WL:	680.0 nm
Scan speed:	1200 nm/min
Delay:	0.0 s
EX Slit:	10.0 nm
EM Slit:	10.0 nm
PMT Voltage:	515 V
Response:	0.002 s
Corrected spectra:	Off
Shutter control:	On

Processing performed
Savitsky-Golay smoothed
Smoothing order:	3
Number of points:	7
Number of times:	1

Peak integration
Integration method:	Rectangular
Sensitivity:	1
Threshold:	1.000

Peaks
No.	Start(nm)	Apex(nm)	End(nm)	Height(Data)	Valley(nm)	Valley(Data)
1	370.0	481.8	482.4	1786	482.4	1776
2	482.4	486.2	487.6	1813	487.6	1799
3	487.6	488.4	489.0	1821	489.0	1808
4	489.0	491.0	493.2	1816	493.2	1795
5	493.2	494.2	591.2	1803	591.2	270.7
6	591.2	591.8	655.2	278.2	655.2	40.50
7	655.2	656.2	662.2	42.15	662.2	31.86
8	662.2	662.8	671.0	33.76	671.0	23.31
9	671.0	671.6	673.0	25.14	673.0	22.67
10	673.0	673.4	675.2	23.80	675.2	22.11
11	675.2	675.8	680.0	23.21	680.0	18.71

Data points
nm	Data
370.0	2.940
370.2	2.539
370.4	2.387
370.6	2.418
370.8	2.526
371.0	2.911
371.2	2.833
371.4	3.013
371.6	2.807
371.8	2.730
372.0	2.574
372.2	2.579
372.4	2.434
372.6	2.447
372.8	2.471
373.0	2.778
373.2	2.918
373.4	2.851
373.6	2.894
373.8	2.418
374.0	2.410
374.2	2.614
374.4	2.827
374.6	2.773
374.8	2.971
375.0	2.679
375.2	2.513
375.4	2.683
375.6	2.956
375.8	2.886
376.0	2.975
376.2	2.924
376.4	2.775
376.6	2.871
376.8	3.145
377.0	3.116
377.2	3.023
377.4	3.004
377.6	2.839
377.8	3.070
378.0	3.204
378.2	3.250
378.4	2.873
378.6	2.645
378.8	2.762
379.0	3.041
379.2	3.152
379.4	3.330
379.6	3.249
379.8	3.004
380.0	3.128
380.2	2.999
380.4	3.051
380.6	3.069
380.8	3.393
381.0	3.277
381.2	3.221
381.4	3.214
381.6	3.349
381.8	3.420
382.0	3.740
382.2	3.853
382.4	3.561
382.6	3.211
382.8	3.322
383.0	3.347
383.2	3.379
383.4	3.523
383.6	3.342
383.8	3.374
384.0	3.660
384.2	3.593
384.4	3.542
384.6	3.516
384.8	3.290
385.0	3.513
385.2	3.642
385.4	3.653
385.6	3.698
385.8	3.907
386.0	3.815
386.2	4.104
386.4	3.997
386.6	4.077
386.8	3.846
387.0	3.733
387.2	3.478
387.4	3.889
387.6	4.102
387.8	4.573
388.0	4.337
388.2	4.397
388.4	4.199
388.6	4.410
388.8	4.605
389.0	4.659
389.2	4.380
389.4	4.620
389.6	4.729
389.8	5.236
390.0	5.588
390.2	5.679
390.4	5.394
390.6	5.256
390.8	5.490
391.0	5.722
391.2	5.951
391.4	5.845
391.6	5.720
391.8	5.586
392.0	6.105
392.2	6.295
392.4	6.711
392.6	6.730
392.8	7.091
393.0	6.770
393.2	6.951
393.4	7.394
393.6	7.806
393.8	7.884
394.0	8.283
394.2	8.111
394.4	8.127
394.6	8.528
394.8	8.990
395.0	9.178
395.2	9.445
395.4	9.540
395.6	9.759
395.8	9.974
396.0	10.08
396.2	10.23
396.4	10.44
396.6	10.59
396.8	10.87
397.0	11.43
397.2	11.39
397.4	11.72
397.6	12.20
397.8	12.52
398.0	13.07
398.2	13.41
398.4	13.97
398.6	14.58
398.8	15.29
399.0	15.81
399.2	16.05
399.4	15.85
399.6	16.20
399.8	16.57
400.0	17.62
400.2	17.95
400.4	18.95
400.6	19.79
400.8	19.95
401.0	20.65
401.2	21.37
401.4	21.97
401.6	22.79
401.8	22.99
402.0	22.85
402.2	23.81
402.4	24.50
402.6	26.60
402.8	27.57
403.0	28.79
403.2	29.01
403.4	30.14
403.6	30.43
403.8	31.69
404.0	32.98
404.2	33.96
404.4	33.88
404.6	34.85
404.8	35.79
405.0	36.87
405.2	39.86
405.4	41.00
405.6	42.07
405.8	42.44
406.0	43.55
406.2	44.62
406.4	47.41
406.6	48.27
406.8	50.36
407.0	52.07
407.2	53.68
407.4	55.53
407.6	56.62
407.8	57.00
408.0	58.32
408.2	60.09
408.4	60.42
408.6	63.12
408.8	64.93
409.0	67.78
409.2	71.19
409.4	74.28
409.6	75.58
409.8	78.64
410.0	80.17
410.2	82.22
410.4	84.45
410.6	86.45
410.8	89.00
411.0	92.97
411.2	96.40
411.4	99.86
411.6	101.7
411.8	102.6
412.0	104.9
412.2	106.5
412.4	108.1
412.6	112.5
412.8	115.7
413.0	118.8
413.2	123.8
413.4	127.0
413.6	130.0
413.8	134.0
414.0	136.3
414.2	140.1
414.4	144.3
414.6	150.4
414.8	154.6
415.0	159.0
415.2	162.6
415.4	167.0
415.6	167.7
415.8	172.4
416.0	174.0
416.2	179.0
416.4	184.9
416.6	190.8
416.8	193.1
417.0	198.7
417.2	201.4
417.4	203.8
417.6	207.9
417.8	213.2
418.0	217.4
418.2	225.8
418.4	231.3
418.6	236.2
418.8	239.3
419.0	244.0
419.2	245.5
419.4	252.9
419.6	259.4
419.8	265.2
420.0	269.5
420.2	276.0
420.4	280.5
420.6	286.6
420.8	290.7
421.0	294.4
421.2	300.3
421.4	305.2
421.6	310.6
421.8	319.0
422.0	324.8
422.2	332.4
422.4	338.0
422.6	340.1
422.8	343.2
423.0	351.6
423.2	358.4
423.4	365.7
423.6	369.9
423.8	375.0
424.0	379.8
424.2	385.7
424.4	393.0
424.6	397.0
424.8	403.0
425.0	410.8
425.2	416.6
425.4	426.7
425.6	432.3
425.8	435.6
426.0	445.1
426.2	452.4
426.4	460.9
426.6	470.6
426.8	471.0
427.0	474.8
427.2	481.7
427.4	487.7
427.6	498.0
427.8	506.6
428.0	509.9
428.2	513.9
428.4	516.0
428.6	520.3
428.8	528.5
429.0	537.2
429.2	545.6
429.4	553.2
429.6	559.6
429.8	568.4
430.0	575.5
430.2	583.5
430.4	588.9
430.6	595.3
430.8	600.2
431.0	604.1
431.2	609.1
431.4	614.8
431.6	622.8
431.8	632.6
432.0	640.8
432.2	647.7
432.4	651.8
432.6	654.0
432.8	661.3
433.0	669.6
433.2	679.2
433.4	687.9
433.6	690.2
433.8	694.0
434.0	701.3
434.2	706.3
434.4	711.6
434.6	716.0
434.8	721.6
435.0	730.2
435.2	739.7
435.4	744.5
435.6	748.1
435.8	746.3
436.0	758.1
436.2	765.7
436.4	775.8
436.6	786.3
436.8	792.0
437.0	795.9
437.2	805.3
437.4	804.1
437.6	803.8
437.8	807.9
438.0	816.3
438.2	829.9
438.4	839.2
438.6	845.9
438.8	846.6
439.0	848.2
439.2	854.5
439.4	861.9
439.6	867.0
439.8	872.1
440.0	875.5
440.2	881.4
440.4	885.7
440.6	896.1
440.8	902.2
441.0	903.3
441.2	906.1
441.4	915.5
441.6	918.0
441.8	925.7
442.0	931.1
442.2	934.1
442.4	937.4
442.6	943.8
442.8	947.7
443.0	951.8
443.2	958.3
443.4	962.8
443.6	967.4
443.8	970.0
444.0	975.7
444.2	981.1
444.4	990.7
444.6	1000
444.8	1010
445.0	1009
445.2	1011
445.4	1012
445.6	1018
445.8	1025
446.0	1034
446.2	1035
446.4	1046
446.6	1051
446.8	1052
447.0	1055
447.2	1056
447.4	1059
447.6	1061
447.8	1064
448.0	1074
448.2	1085
448.4	1098
448.6	1102
448.8	1097
449.0	1099
449.2	1102
449.4	1108
449.6	1116
449.8	1119
450.0	1124
450.2	1132
450.4	1137
450.6	1147
450.8	1151
451.0	1150
451.2	1153
451.4	1157
451.6	1161
451.8	1168
452.0	1172
452.2	1175
452.4	1181
452.6	1184
452.8	1189
453.0	1195
453.2	1199
453.4	1207
453.6	1212
453.8	1219
454.0	1225
454.2	1230
454.4	1234
454.6	1239
454.8	1241
455.0	1251
455.2	1249
455.4	1248
455.6	1256
455.8	1266
456.0	1274
456.2	1282
456.4	1285
456.6	1289
456.8	1292
457.0	1296
457.2	1299
457.4	1300
457.6	1305
457.8	1313
458.0	1322
458.2	1321
458.4	1325
458.6	1329
458.8	1336
459.0	1341
459.2	1353
459.4	1354
459.6	1358
459.8	1363
460.0	1371
460.2	1374
460.4	1383
460.6	1390
460.8	1393
461.0	1395
461.2	1400
461.4	1406
461.6	1417
461.8	1426
462.0	1428
462.2	1433
462.4	1433
462.6	1433
462.8	1435
463.0	1434
463.2	1439
463.4	1454
463.6	1461
463.8	1467
464.0	1465
464.2	1467
464.4	1473
464.6	1481
464.8	1485
465.0	1493
465.2	1498
465.4	1504
465.6	1509
465.8	1512
466.0	1514
466.2	1517
466.4	1520
466.6	1526
466.8	1534
467.0	1539
467.2	1538
467.4	1542
467.6	1540
467.8	1545
468.0	1557
468.2	1565
468.4	1569
468.6	1573
468.8	1568
469.0	1566
469.2	1572
469.4	1580
469.6	1589
469.8	1592
470.0	1597
470.2	1601
470.4	1610
470.6	1613
470.8	1613
471.0	1615
471.2	1624
471.4	1626
471.6	1633
471.8	1632
472.0	1634
472.2	1638
472.4	1646
472.6	1646
472.8	1645
473.0	1646
473.2	1655
473.4	1659
473.6	1666
473.8	1667
474.0	1664
474.2	1671
474.4	1676
474.6	1677
474.8	1684
475.0	1688
475.2	1690
475.4	1693
475.6	1698
475.8	1699
476.0	1703
476.2	1709
476.4	1709
476.6	1704
476.8	1707
477.0	1714
477.2	1717
477.4	1718
477.6	1717
477.8	1718
478.0	1717
478.2	1721
478.4	1728
478.6	1732
478.8	1737
479.0	1741
479.2	1741
479.4	1738
479.6	1741
479.8	1745
480.0	1744
480.2	1751
480.4	1752
480.6	1753
480.8	1750
481.0	1752
481.2	1754
481.4	1770
481.6	1780
481.8	1786
482.0	1783
482.2	1779
482.4	1776
482.6	1779
482.8	1783
483.0	1779
483.2	1777
483.4	1777
483.6	1786
483.8	1790
484.0	1787
484.2	1788
484.4	1785
484.6	1790
484.8	1799
485.0	1799
485.2	1794
485.4	1794
485.6	1791
485.8	1799
486.0	1809
486.2	1813
486.4	1812
486.6	1812
486.8	1806
487.0	1807
487.2	1807
487.4	1800
487.6	1799
487.8	1805
488.0	1810
488.2	1819
488.4	1821
488.6	1815
488.8	1811
489.0	1808
489.2	1810
489.4	1813
489.6	1813
489.8	1810
490.0	1811
490.2	1809
490.4	1811
490.6	1813
490.8	1815
491.0	1816
491.2	1812
491.4	1805
491.6	1800
491.8	1805
492.0	1807
492.2	1810
492.4	1802
492.6	1797
492.8	1795
493.0	1798
493.2	1795
493.4	1797
493.6	1797
493.8	1799
494.0	1802
494.2	1803
494.4	1799
494.6	1797
494.8	1796
495.0	1801
495.2	1801
495.4	1799
495.6	1793
495.8	1785
496.0	1781
496.2	1782
496.4	1782
496.6	1783
496.8	1779
497.0	1771
497.2	1764
497.4	1761
497.6	1759
497.8	1760
498.0	1762
498.2	1758
498.4	1755
498.6	1752
498.8	1746
499.0	1744
499.2	1746
499.4	1743
499.6	1745
499.8	1739
500.0	1731
500.2	1728
500.4	1725
500.6	1724
500.8	1722
501.0	1717
501.2	1714
501.4	1713
501.6	1715
501.8	1711
502.0	1706
502.2	1703
502.4	1705
502.6	1705
502.8	1703
503.0	1691
503.2	1686
503.4	1678
503.6	1679
503.8	1680
504.0	1682
504.2	1680
504.4	1674
504.6	1670
504.8	1665
505.0	1661
505.2	1658
505.4	1651
505.6	1641
505.8	1636
506.0	1629
506.2	1625
506.4	1622
506.6	1617
506.8	1613
507.0	1608
507.2	1602
507.4	1598
507.6	1604
507.8	1607
508.0	1601
508.2	1602
508.4	1591
508.6	1586
508.8	1588
509.0	1586
509.2	1573
509.4	1572
509.6	1560
509.8	1555
510.0	1554
510.2	1552
510.4	1546
510.6	1546
510.8	1545
511.0	1544
511.2	1541
511.4	1532
511.6	1524
511.8	1517
512.0	1515
512.2	1511
512.4	1507
512.6	1503
512.8	1502
513.0	1497
513.2	1490
513.4	1482
513.6	1477
513.8	1476
514.0	1479
514.2	1475
514.4	1466
514.6	1463
514.8	1457
515.0	1454
515.2	1447
515.4	1439
515.6	1436
515.8	1437
516.0	1435
516.2	1436
516.4	1427
516.6	1418
516.8	1413
517.0	1408
517.2	1405
517.4	1404
517.6	1396
517.8	1389
518.0	1387
518.2	1389
518.4	1387
518.6	1384
518.8	1377
519.0	1367
519.2	1362
519.4	1360
519.6	1357
519.8	1352
520.0	1347
520.2	1337
520.4	1329
520.6	1321
520.8	1315
521.0	1311
521.2	1312
521.4	1311
521.6	1309
521.8	1308
522.0	1300
522.2	1298
522.4	1291
522.6	1285
522.8	1283
523.0	1285
523.2	1281
523.4	1280
523.6	1267
523.8	1259
524.0	1257
524.2	1254
524.4	1256
524.6	1254
524.8	1244
525.0	1240
525.2	1232
525.4	1226
525.6	1219
525.8	1213
526.0	1212
526.2	1213
526.4	1209
526.6	1210
526.8	1200
527.0	1195
527.2	1193
527.4	1188
527.6	1184
527.8	1184
528.0	1172
528.2	1165
528.4	1160
528.6	1159
528.8	1160
529.0	1161
529.2	1152
529.4	1146
529.6	1140
529.8	1138
530.0	1130
530.2	1126
530.4	1121
530.6	1116
530.8	1118
531.0	1119
531.2	1117
531.4	1114
531.6	1108
531.8	1101
532.0	1103
532.2	1106
532.4	1107
532.6	1101
532.8	1092
533.0	1083
533.2	1075
533.4	1073
533.6	1068
533.8	1059
534.0	1053
534.2	1052
534.4	1052
534.6	1048
534.8	1046
535.0	1040
535.2	1036
535.4	1031
535.6	1026
535.8	1016
536.0	1017
536.2	1016
536.4	1017
536.6	1015
536.8	1007
537.0	997.1
537.2	993.2
537.4	989.6
537.6	984.1
537.8	978.6
538.0	976.1
538.2	976.9
538.4	976.5
538.6	974.1
538.8	970.5
539.0	962.2
539.2	958.2
539.4	954.2
539.6	946.8
539.8	937.5
540.0	934.2
540.2	933.1
540.4	929.1
540.6	928.6
540.8	925.2
541.0	918.4
541.2	916.1
541.4	916.0
541.6	911.7
541.8	905.0
542.0	898.1
542.2	896.2
542.4	897.2
542.6	897.9
542.8	896.2
543.0	887.7
543.2	881.9
543.4	876.4
543.6	871.4
543.8	865.5
544.0	859.1
544.2	852.0
544.4	848.8
544.6	847.3
544.8	847.8
545.0	846.9
545.2	846.9
545.4	839.6
545.6	833.7
545.8	830.4
546.0	826.6
546.2	820.8
546.4	819.6
546.6	814.0
546.8	811.4
547.0	806.3
547.2	806.1
547.4	801.9
547.6	797.0
547.8	789.0
548.0	785.0
548.2	781.9
548.4	781.9
548.6	781.8
548.8	777.4
549.0	774.3
549.2	770.0
549.4	767.8
549.6	761.7
549.8	760.8
550.0	753.8
550.2	752.5
550.4	744.5
550.6	742.0
550.8	736.5
551.0	734.9
551.2	729.7
551.4	728.9
551.6	726.1
551.8	727.6
552.0	725.7
552.2	723.8
552.4	721.4
552.6	717.0
552.8	712.2
553.0	708.9
553.2	703.1
553.4	697.8
553.6	692.9
553.8	691.7
554.0	690.9
554.2	691.5
554.4	686.0
554.6	682.7
554.8	676.6
555.0	675.2
555.2	671.6
555.4	665.3
555.6	657.1
555.8	651.7
556.0	650.0
556.2	653.7
556.4	656.0
556.6	652.2
556.8	645.0
557.0	634.8
557.2	631.0
557.4	631.8
557.6	633.5
557.8	636.0
558.0	635.9
558.2	633.8
558.4	628.3
558.6	622.3
558.8	615.3
559.0	612.9
559.2	612.9
559.4	613.8
559.6	609.7
559.8	604.9
560.0	598.6
560.2	593.6
560.4	588.1
560.6	582.8
560.8	582.0
561.0	582.0
561.2	584.6
561.4	580.9
561.6	575.3
561.8	569.9
562.0	567.3
562.2	565.9
562.4	566.1
562.6	564.3
562.8	563.7
563.0	561.0
563.2	556.5
563.4	552.0
563.6	547.6
563.8	547.1
564.0	543.4
564.2	542.0
564.4	541.2
564.6	537.0
564.8	530.4
565.0	526.9
565.2	521.4
565.4	521.1
565.6	521.5
565.8	523.7
566.0	522.5
566.2	521.1
566.4	518.0
566.6	514.3
566.8	508.8
567.0	508.7
567.2	504.2
567.4	501.7
567.6	499.9
567.8	502.0
568.0	498.1
568.2	494.3
568.4	487.7
568.6	481.5
568.8	477.9
569.0	480.6
569.2	480.6
569.4	479.5
569.6	477.9
569.8	470.9
570.0	467.4
570.2	469.0
570.4	469.6
570.6	469.5
570.8	466.5
571.0	459.7
571.2	453.5
571.4	454.2
571.6	452.4
571.8	449.8
572.0	448.5
572.2	445.6
572.4	442.3
572.6	444.2
572.8	443.5
573.0	438.8
573.2	434.6
573.4	428.5
573.6	426.4
573.8	424.1
574.0	426.0
574.2	424.2
574.4	422.1
574.6	423.5
574.8	423.6
575.0	418.4
575.2	417.9
575.4	415.9
575.6	410.7
575.8	411.3
576.0	408.7
576.2	406.2
576.4	402.8
576.6	402.4
576.8	397.2
577.0	393.1
577.2	388.3
577.4	386.3
577.6	384.8
577.8	386.2
578.0	387.1
578.2	388.6
578.4	382.5
578.6	379.0
578.8	379.2
579.0	378.8
579.2	378.2
579.4	380.0
579.6	375.5
579.8	372.7
580.0	373.1
580.2	372.4
580.4	371.0
580.6	367.0
580.8	359.2
581.0	354.8
581.2	356.3
581.4	357.3
581.6	359.2
581.8	358.5
582.0	353.4
582.2	351.4
582.4	351.2
582.6	348.0
582.8	345.5
583.0	342.8
583.2	339.8
583.4	338.6
583.6	338.8
583.8	336.7
584.0	334.6
584.2	330.1
584.4	326.6
584.6	325.5
584.8	326.5
585.0	326.5
585.2	324.3
585.4	320.3
585.6	317.5
585.8	317.1
586.0	317.4
586.2	319.5
586.4	317.1
586.6	312.8
586.8	310.1
587.0	306.9
587.2	305.1
587.4	307.6
587.6	306.4
587.8	306.2
588.0	304.3
588.2	301.6
588.4	298.6
588.6	298.6
588.8	296.8
589.0	296.9
589.2	293.2
589.4	292.2
589.6	289.6
589.8	289.1
590.0	288.7
590.2	287.6
590.4	284.3
590.6	281.2
590.8	276.9
591.0	272.6
591.2	270.7
591.4	271.7
591.6	276.0
591.8	278.2
592.0	278.1
592.2	276.1
592.4	271.1
592.6	266.5
592.8	264.3
593.0	262.8
593.2	262.2
593.4	262.6
593.6	259.2
593.8	256.0
594.0	253.0
594.2	252.9
594.4	253.3
594.6	253.8
594.8	252.9
595.0	252.4
595.2	250.0
595.4	249.7
595.6	247.1
595.8	245.7
596.0	243.6
596.2	242.1
596.4	240.2
596.6	240.2
596.8	239.0
597.0	240.4
597.2	239.0
597.4	238.0
597.6	235.5
597.8	231.9
598.0	230.1
598.2	229.6
598.4	227.9
598.6	226.1
598.8	226.2
599.0	225.3
599.2	224.1
599.4	222.2
599.6	221.4
599.8	219.7
600.0	221.2
600.2	218.9
600.4	216.2
600.6	213.1
600.8	212.4
601.0	213.1
601.2	213.7
601.4	213.7
601.6	213.1
601.8	211.5
602.0	208.7
602.2	206.5
602.4	204.4
602.6	203.4
602.8	204.5
603.0	206.4
603.2	207.2
603.4	206.8
603.6	204.3
603.8	199.3
604.0	197.2
604.2	195.0
604.4	193.5
604.6	192.7
604.8	193.3
605.0	192.6
605.2	191.9
605.4	191.8
605.6	190.1
605.8	187.7
606.0	186.3
606.2	184.0
606.4	181.7
606.6	181.0
606.8	179.7
607.0	179.5
607.2	180.5
607.4	180.3
607.6	177.7
607.8	176.1
608.0	174.5
608.2	175.2
608.4	176.7
608.6	175.8
608.8	173.5
609.0	172.6
609.2	171.2
609.4	169.8
609.6	168.0
609.8	166.0
610.0	164.5
610.2	163.7
610.4	164.0
610.6	164.2
610.8	163.6
611.0	161.9
611.2	159.3
611.4	157.6
611.6	156.9
611.8	158.0
612.0	159.0
612.2	156.9
612.4	155.0
612.6	155.2
612.8	154.3
613.0	154.6
613.2	153.7
613.4	149.9
613.6	147.7
613.8	147.1
614.0	147.2
614.2	147.4
614.4	145.4
614.6	144.4
614.8	144.3
615.0	143.7
615.2	144.0
615.4	144.4
615.6	142.5
615.8	141.9
616.0	141.0
616.2	139.7
616.4	138.0
616.6	137.7
616.8	137.8
617.0	137.0
617.2	136.4
617.4	136.5
617.6	135.2
617.8	133.0
618.0	132.7
618.2	131.3
618.4	130.6
618.6	131.7
618.8	132.2
619.0	129.5
619.2	127.6
619.4	126.3
619.6	126.1
619.8	125.0
620.0	124.5
620.2	124.0
620.4	122.9
620.6	122.8
620.8	123.1
621.0	121.1
621.2	120.3
621.4	119.0
621.6	117.0
621.8	115.7
622.0	114.8
622.2	114.8
622.4	115.6
622.6	114.9
622.8	116.1
623.0	115.8
623.2	113.8
623.4	112.3
623.6	111.0
623.8	111.1
624.0	112.6
624.2	112.2
624.4	109.8
624.6	109.0
624.8	108.5
625.0	109.0
625.2	108.9
625.4	108.3
625.6	106.4
625.8	106.1
626.0	106.4
626.2	105.5
626.4	105.3
626.6	105.4
626.8	104.2
627.0	103.6
627.2	103.2
627.4	101.1
627.6	100.0
627.8	99.87
628.0	99.11
628.2	99.05
628.4	98.57
628.6	97.60
628.8	96.40
629.0	95.70
629.2	95.41
629.4	95.04
629.6	94.00
629.8	93.06
630.0	92.43
630.2	92.40
630.4	92.57
630.6	93.00
630.8	91.65
631.0	90.56
631.2	90.56
631.4	90.08
631.6	88.98
631.8	87.43
632.0	85.75
632.2	85.36
632.4	85.22
632.6	85.36
632.8	86.05
633.0	85.73
633.2	85.80
633.4	84.97
633.6	82.47
633.8	81.74
634.0	81.31
634.2	80.96
634.4	80.45
634.6	79.28
634.8	78.33
635.0	77.84
635.2	77.71
635.4	78.15
635.6	78.64
635.8	78.53
636.0	77.91
636.2	76.56
636.4	76.48
636.6	76.27
636.8	75.59
637.0	74.28
637.2	73.07
637.4	72.69
637.6	73.32
637.8	72.99
638.0	72.50
638.2	71.09
638.4	70.57
638.6	71.29
638.8	71.01
639.0	70.45
639.2	70.58
639.4	70.07
639.6	69.95
639.8	69.73
640.0	67.73
640.2	66.49
640.4	66.96
640.6	67.92
640.8	68.24
641.0	67.64
641.2	66.11
641.4	65.42
641.6	66.19
641.8	66.18
642.0	66.09
642.2	65.61
642.4	63.57
642.6	62.86
642.8	62.14
643.0	61.74
643.2	61.85
643.4	61.95
643.6	61.78
643.8	61.85
644.0	61.09
644.2	60.28
644.4	58.96
644.6	58.61
644.8	57.77
645.0	57.45
645.2	57.41
645.4	56.90
645.6	56.40
645.8	56.45
646.0	56.40
646.2	56.34
646.4	56.57
646.6	55.78
646.8	55.91
647.0	55.45
647.2	54.81
647.4	53.71
647.6	53.46
647.8	52.34
648.0	52.83
648.2	53.06
648.4	53.34
648.6	53.03
648.8	52.14
649.0	51.04
649.2	49.81
649.4	49.31
649.6	49.14
649.8	48.64
650.0	47.77
650.2	48.85
650.4	49.05
650.6	49.18
650.8	47.49
651.0	46.30
651.2	45.76
651.4	45.84
651.6	46.71
651.8	47.29
652.0	46.53
652.2	45.58
652.4	45.41
652.6	44.81
652.8	45.35
653.0	44.70
653.2	44.54
653.4	44.07
653.6	44.25
653.8	44.64
654.0	44.70
654.2	43.90
654.4	43.45
654.6	42.59
654.8	41.92
655.0	41.15
655.2	40.50
655.4	40.80
655.6	40.78
655.8	41.49
656.0	41.58
656.2	42.15
656.4	41.05
656.6	40.89
656.8	40.01
657.0	40.16
657.2	39.42
657.4	40.01
657.6	39.20
657.8	40.17
658.0	39.55
658.2	38.97
658.4	38.18
658.6	37.78
658.8	37.89
659.0	37.69
659.2	37.00
659.4	36.49
659.6	36.17
659.8	36.15
660.0	36.68
660.2	35.76
660.4	36.00
660.6	35.76
660.8	35.49
661.0	34.86
661.2	35.11
661.4	34.12
661.6	33.61
661.8	32.51
662.0	31.96
662.2	31.86
662.4	32.58
662.6	33.15
662.8	33.76
663.0	33.35
663.2	33.23
663.4	33.48
663.6	32.78
663.8	32.34
664.0	31.87
664.2	31.11
664.4	30.97
664.6	31.56
664.8	32.66
665.0	32.42
665.2	32.43
665.4	31.07
665.6	29.90
665.8	29.15
666.0	29.56
666.2	29.12
666.4	29.29
666.6	28.98
666.8	28.88
667.0	28.50
667.2	28.34
667.4	28.46
667.6	28.09
667.8	28.40
668.0	28.25
668.2	27.78
668.4	27.42
668.6	27.01
668.8	26.53
669.0	25.98
669.2	25.68
669.4	25.45
669.6	25.43
669.8	25.41
670.0	26.22
670.2	26.35
670.4	26.27
670.6	25.40
670.8	23.89
671.0	23.31
671.2	23.57
671.4	24.29
671.6	25.14
671.8	25.10
672.0	24.88
672.2	24.64
672.4	23.75
672.6	23.46
672.8	22.92
673.0	22.67
673.2	23.39
673.4	23.80
673.6	23.35
673.8	23.57
674.0	23.00
674.2	22.70
674.4	22.72
674.6	22.45
674.8	22.44
675.0	22.33
675.2	22.11
675.4	22.56
675.6	22.90
675.8	23.21
676.0	23.01
676.2	21.63
676.4	20.69
676.6	20.88
676.8	21.01
677.0	21.30
677.2	20.49
677.4	19.60
677.6	19.19
677.8	19.41
678.0	19.67
678.2	19.69
678.4	19.72
678.6	19.46
678.8	19.54
679.0	19.75
679.2	19.49
679.4	19.00
679.6	18.42
679.8	18.21
680.0	18.71

