Sample:	'20211010A(EM)
File name:	B-CDS 10.FDS
Run date:	'14:39:20, 06/08/2023
Operator:	Administrator
Comment:	'

Instrument
Model:	F-4700 FL Spectrophotometer
Serial number:	2019-001
ROM Version:	5J24010 00

Instrument parameters
Measurement type:	Wavelength scan
Scan mode:	Emission
Data mode:	Fluorescence
EX WL:	350.0 nm
EM  Start WL:	370.0 nm
EM  End WL:	680.0 nm
Scan speed:	1200 nm/min
Delay:	0.0 s
EX Slit:	10.0 nm
EM Slit:	10.0 nm
PMT Voltage:	515 V
Response:	0.002 s
Corrected spectra:	Off
Shutter control:	On

Processing performed
Savitsky-Golay smoothed
Smoothing order:	3
Number of points:	7
Number of times:	1

Peak integration
Integration method:	Rectangular
Sensitivity:	1
Threshold:	1.000

Peaks
No.	Start(nm)	Apex(nm)	End(nm)	Height(Data)	Valley(nm)	Valley(Data)
1	370.0	488.6	490.0	740.4	490.0	731.3
2	490.0	492.2	493.0	762.2	493.0	755.3
3	493.0	496.6	497.4	773.7	497.4	763.9
4	497.4	498.8	499.6	771.5	499.6	766.5
5	499.6	500.4	502.0	773.1	502.0	762.5
6	502.0	503.6	504.6	771.1	504.6	759.5
7	504.6	506.2	510.8	767.0	510.8	738.7
8	510.8	511.2	558.6	744.6	558.6	395.0
9	558.6	559.4	608.6	397.3	608.6	126.3
10	608.6	610.0	658.0	128.4	658.0	27.85
11	658.0	659.4	660.2	29.68	660.2	26.30
12	660.2	661.0	665.6	28.27	665.6	22.25
13	665.6	666.6	673.4	23.82	673.4	17.10
14	673.4	674.0	680.0	19.52	680.0	14.05

Data points
nm	Data
370.0	0.902
370.2	1.358
370.4	1.467
370.6	1.369
370.8	1.265
371.0	1.153
371.2	1.174
371.4	1.469
371.6	1.484
371.8	1.454
372.0	1.151
372.2	1.058
372.4	1.001
372.6	1.302
372.8	1.575
373.0	1.608
373.2	1.369
373.4	1.374
373.6	1.255
373.8	1.153
374.0	1.240
374.2	1.161
374.4	1.180
374.6	1.199
374.8	1.284
375.0	1.123
375.2	1.188
375.4	1.200
375.6	1.180
375.8	1.230
376.0	1.345
376.2	1.374
376.4	1.445
376.6	1.484
376.8	1.657
377.0	1.732
377.2	1.529
377.4	1.379
377.6	1.067
377.8	0.981
378.0	1.157
378.2	1.367
378.4	1.574
378.6	1.767
378.8	1.558
379.0	1.310
379.2	1.041
379.4	1.105
379.6	1.212
379.8	1.350
380.0	1.478
380.2	1.559
380.4	1.797
380.6	1.868
380.8	1.693
381.0	1.380
381.2	1.480
381.4	1.465
381.6	1.465
381.8	1.268
382.0	1.166
382.2	1.190
382.4	1.535
382.6	1.636
382.8	1.617
383.0	1.573
383.2	1.488
383.4	1.558
383.6	1.591
383.8	1.474
384.0	1.417
384.2	1.492
384.4	1.313
384.6	1.563
384.8	1.806
385.0	1.986
385.2	2.083
385.4	1.864
385.6	1.473
385.8	1.383
386.0	1.318
386.2	1.598
386.4	1.936
386.6	1.962
386.8	1.810
387.0	1.728
387.2	1.470
387.4	1.504
387.6	1.491
387.8	1.548
388.0	1.592
388.2	1.838
388.4	1.763
388.6	1.775
388.8	1.653
389.0	1.693
389.2	2.006
389.4	2.179
389.6	2.027
389.8	1.792
390.0	1.504
390.2	1.401
390.4	1.634
390.6	1.674
390.8	2.017
391.0	2.278
391.2	2.129
391.4	2.066
391.6	1.911
391.8	1.857
392.0	2.227
392.2	2.490
392.4	2.389
392.6	2.325
392.8	2.236
393.0	2.203
393.2	2.048
393.4	1.978
393.6	1.994
393.8	2.030
394.0	2.181
394.2	2.201
394.4	2.116
394.6	2.069
394.8	2.129
395.0	2.413
395.2	2.643
395.4	2.737
395.6	2.778
395.8	2.755
396.0	2.603
396.2	2.816
396.4	2.849
396.6	2.892
396.8	2.880
397.0	2.920
397.2	2.855
397.4	3.049
397.6	3.286
397.8	3.475
398.0	3.619
398.2	3.529
398.4	3.255
398.6	3.162
398.8	3.023
399.0	3.002
399.2	3.302
399.4	3.379
399.6	3.277
399.8	3.461
400.0	3.342
400.2	3.548
400.4	3.583
400.6	3.758
400.8	3.684
401.0	3.846
401.2	3.949
401.4	4.347
401.6	4.575
401.8	4.964
402.0	4.928
402.2	4.872
402.4	4.823
402.6	4.890
402.8	4.711
403.0	4.636
403.2	4.568
403.4	4.772
403.6	5.036
403.8	5.593
404.0	5.602
404.2	5.936
404.4	5.875
404.6	6.026
404.8	6.051
405.0	6.339
405.2	6.393
405.4	6.785
405.6	7.045
405.8	7.152
406.0	7.221
406.2	7.275
406.4	7.323
406.6	7.308
406.8	7.457
407.0	7.429
407.2	7.728
407.4	8.216
407.6	8.847
407.8	9.271
408.0	9.334
408.2	9.533
408.4	9.635
408.6	10.06
408.8	10.16
409.0	11.14
409.2	11.92
409.4	12.82
409.6	12.82
409.8	12.91
410.0	12.35
410.2	12.96
410.4	13.46
410.6	13.82
410.8	14.03
411.0	14.55
411.2	15.00
411.4	15.74
411.6	15.87
411.8	16.33
412.0	17.42
412.2	17.99
412.4	18.43
412.6	18.77
412.8	19.21
413.0	19.76
413.2	20.38
413.4	20.78
413.6	21.36
413.8	22.06
414.0	23.52
414.2	24.21
414.4	23.91
414.6	24.27
414.8	24.54
415.0	25.70
415.2	27.28
415.4	28.81
415.6	29.40
415.8	30.50
416.0	30.86
416.2	31.72
416.4	32.61
416.6	34.01
416.8	34.89
417.0	35.77
417.2	36.47
417.4	36.64
417.6	37.84
417.8	39.18
418.0	40.33
418.2	41.89
418.4	43.52
418.6	44.19
418.8	45.49
419.0	45.59
419.2	45.71
419.4	47.22
419.6	48.97
419.8	51.03
420.0	53.05
420.2	54.57
420.4	55.64
420.6	56.82
420.8	59.82
421.0	62.45
421.2	63.82
421.4	64.50
421.6	65.24
421.8	64.69
422.0	66.62
422.2	68.14
422.4	70.11
422.6	71.89
422.8	74.31
423.0	75.41
423.2	76.78
423.4	77.79
423.6	79.79
423.8	80.57
424.0	82.70
424.2	82.80
424.4	84.36
424.6	86.86
424.8	89.70
425.0	92.54
425.2	95.74
425.4	96.17
425.6	96.61
425.8	97.97
426.0	99.02
426.2	100.7
426.4	103.6
426.6	107.5
426.8	110.0
427.0	112.8
427.2	113.8
427.4	113.9
427.6	114.1
427.8	115.1
428.0	117.1
428.2	120.0
428.4	123.8
428.6	125.8
428.8	126.3
429.0	126.4
429.2	128.8
429.4	130.7
429.6	135.0
429.8	137.0
430.0	138.8
430.2	139.1
430.4	140.9
430.6	143.4
430.8	146.7
431.0	150.7
431.2	152.5
431.4	153.1
431.6	154.8
431.8	156.9
432.0	158.0
432.2	159.2
432.4	160.0
432.6	161.8
432.8	165.8
433.0	169.2
433.2	171.3
433.4	170.5
433.6	169.9
433.8	171.2
434.0	174.9
434.2	178.3
434.4	180.2
434.6	182.1
434.8	183.0
435.0	184.9
435.2	186.5
435.4	188.2
435.6	189.9
435.8	192.5
436.0	196.0
436.2	198.7
436.4	201.3
436.6	203.7
436.8	205.1
437.0	204.1
437.2	202.6
437.4	203.1
437.6	205.7
437.8	208.6
438.0	212.0
438.2	213.3
438.4	212.9
438.6	214.9
438.8	217.4
439.0	219.5
439.2	222.2
439.4	225.3
439.6	226.6
439.8	228.0
440.0	231.5
440.2	233.6
440.4	234.2
440.6	234.8
440.8	233.8
441.0	233.4
441.2	239.0
441.4	242.1
441.6	246.1
441.8	247.0
442.0	246.2
442.2	244.0
442.4	245.7
442.6	248.2
442.8	253.4
443.0	255.9
443.2	258.4
443.4	257.2
443.6	257.1
443.8	260.4
444.0	262.2
444.2	264.5
444.4	266.6
444.6	266.1
444.8	266.3
445.0	269.1
445.2	271.3
445.4	274.2
445.6	278.3
445.8	280.0
446.0	279.1
446.2	278.2
446.4	276.3
446.6	275.8
446.8	278.4
447.0	281.9
447.2	285.5
447.4	288.0
447.6	287.3
447.8	288.7
448.0	290.7
448.2	294.3
448.4	296.6
448.6	298.7
448.8	298.2
449.0	301.8
449.2	304.2
449.4	306.6
449.6	305.3
449.8	307.9
450.0	311.7
450.2	315.2
450.4	317.4
450.6	320.4
450.8	320.7
451.0	322.7
451.2	324.9
451.4	326.2
451.6	327.8
451.8	330.9
452.0	333.4
452.2	332.2
452.4	332.3
452.6	333.5
452.8	335.1
453.0	337.6
453.2	341.2
453.4	341.3
453.6	343.4
453.8	345.1
454.0	348.9
454.2	351.9
454.4	356.3
454.6	357.5
454.8	358.2
455.0	356.2
455.2	358.1
455.4	359.9
455.6	361.9
455.8	366.4
456.0	368.6
456.2	369.7
456.4	375.4
456.6	378.3
456.8	377.5
457.0	378.6
457.2	379.4
457.4	380.2
457.6	383.2
457.8	387.2
458.0	388.4
458.2	390.7
458.4	393.2
458.6	395.0
458.8	397.9
459.0	400.5
459.2	401.6
459.4	403.8
459.6	406.5
459.8	410.3
460.0	414.2
460.2	415.8
460.4	415.9
460.6	417.4
460.8	422.9
461.0	426.2
461.2	429.8
461.4	430.6
461.6	432.6
461.8	434.1
462.0	439.0
462.2	442.8
462.4	446.3
462.6	447.0
462.8	451.4
463.0	455.7
463.2	459.6
463.4	463.0
463.6	463.0
463.8	464.2
464.0	462.5
464.2	466.1
464.4	468.3
464.6	473.5
464.8	479.3
465.0	484.2
465.2	482.4
465.4	488.2
465.6	493.0
465.8	497.3
466.0	500.8
466.2	495.7
466.4	489.4
466.6	493.8
466.8	498.4
467.0	506.3
467.2	514.4
467.4	518.4
467.6	518.7
467.8	522.5
468.0	520.8
468.2	519.5
468.4	517.9
468.6	519.9
468.8	524.9
469.0	530.6
469.2	535.4
469.4	536.4
469.6	539.4
469.8	543.1
470.0	545.3
470.2	545.3
470.4	545.8
470.6	550.0
470.8	559.4
471.0	564.7
471.2	564.9
471.4	561.3
471.6	557.6
471.8	560.2
472.0	565.9
472.2	567.9
472.4	571.1
472.6	573.9
472.8	578.4
473.0	583.6
473.2	586.5
473.4	588.9
473.6	590.4
473.8	595.8
474.0	597.0
474.2	596.3
474.4	594.4
474.6	595.9
474.8	598.7
475.0	605.0
475.2	608.4
475.4	611.0
475.6	614.4
475.8	617.2
476.0	618.3
476.2	619.8
476.4	619.9
476.6	620.0
476.8	621.0
477.0	623.5
477.2	625.7
477.4	629.3
477.6	633.0
477.8	633.8
478.0	634.7
478.2	638.3
478.4	645.3
478.6	649.4
478.8	651.8
479.0	647.9
479.2	644.6
479.4	648.0
479.6	652.8
479.8	656.8
480.0	658.0
480.2	657.2
480.4	659.0
480.6	664.0
480.8	666.0
481.0	668.9
481.2	670.6
481.4	672.8
481.6	674.9
481.8	678.7
482.0	681.8
482.2	683.6
482.4	683.3
482.6	685.9
482.8	687.3
483.0	693.6
483.2	697.2
483.4	700.1
483.6	697.3
483.8	695.3
484.0	696.0
484.2	698.2
484.4	699.3
484.6	705.2
484.8	705.6
485.0	703.2
485.2	709.0
485.4	711.5
485.6	715.6
485.8	719.4
486.0	719.7
486.2	719.8
486.4	721.1
486.6	720.5
486.8	722.0
487.0	722.0
487.2	726.2
487.4	731.7
487.6	728.6
487.8	730.2
488.0	731.1
488.2	732.3
488.4	736.3
488.6	740.4
488.8	737.3
489.0	739.6
489.2	737.2
489.4	735.2
489.6	733.8
489.8	733.5
490.0	731.3
490.2	737.6
490.4	744.3
490.6	750.2
490.8	750.3
491.0	750.0
491.2	747.9
491.4	749.6
491.6	755.1
491.8	759.6
492.0	761.7
492.2	762.2
492.4	760.4
492.6	757.9
492.8	756.7
493.0	755.3
493.2	757.6
493.4	757.8
493.6	760.3
493.8	760.2
494.0	761.6
494.2	761.9
494.4	759.2
494.6	758.8
494.8	761.8
495.0	761.1
495.2	765.1
495.4	769.9
495.6	768.4
495.8	767.1
496.0	769.2
496.2	768.9
496.4	770.1
496.6	773.7
496.8	772.9
497.0	768.0
497.2	767.7
497.4	763.9
497.6	766.0
497.8	767.6
498.0	768.0
498.2	768.8
498.4	770.6
498.6	771.3
498.8	771.5
499.0	770.2
499.2	770.7
499.4	768.9
499.6	766.5
499.8	769.1
500.0	769.0
500.2	770.5
500.4	773.1
500.6	770.6
500.8	767.2
501.0	769.4
501.2	768.6
501.4	768.4
501.6	768.4
501.8	765.3
502.0	762.5
502.2	763.4
502.4	766.0
502.6	767.2
502.8	766.8
503.0	766.3
503.2	766.0
503.4	765.4
503.6	771.1
503.8	768.4
504.0	766.5
504.2	765.3
504.4	762.8
504.6	759.5
504.8	761.8
505.0	761.9
505.2	763.2
505.4	762.7
505.6	762.1
505.8	761.7
506.0	764.4
506.2	767.0
506.4	764.2
506.6	758.1
506.8	755.6
507.0	755.3
507.2	757.5
507.4	760.0
507.6	754.8
507.8	750.3
508.0	752.2
508.2	751.8
508.4	749.2
508.6	745.1
508.8	740.4
509.0	738.7
509.2	741.9
509.4	745.0
509.6	743.9
509.8	744.8
510.0	743.1
510.2	740.2
510.4	739.4
510.6	740.4
510.8	738.7
511.0	743.6
511.2	744.6
511.4	743.9
511.6	742.1
511.8	737.8
512.0	734.4
512.2	733.3
512.4	732.5
512.6	731.3
512.8	730.5
513.0	727.5
513.2	729.6
513.4	731.4
513.6	727.7
513.8	724.5
514.0	722.8
514.2	717.1
514.4	717.7
514.6	719.6
514.8	720.4
515.0	721.8
515.2	722.5
515.4	717.6
515.6	718.6
515.8	716.6
516.0	711.9
516.2	711.0
516.4	706.7
516.6	704.2
516.8	707.1
517.0	705.7
517.2	701.2
517.4	701.6
517.6	698.4
517.8	699.1
518.0	701.6
518.2	698.0
518.4	698.3
518.6	699.4
518.8	695.8
519.0	694.5
519.2	695.8
519.4	693.2
519.6	691.3
519.8	690.7
520.0	686.1
520.2	685.4
520.4	687.2
520.6	684.1
520.8	680.3
521.0	677.9
521.2	671.6
521.4	670.7
521.6	671.1
521.8	667.5
522.0	669.8
522.2	671.4
522.4	668.4
522.6	670.3
522.8	670.4
523.0	669.8
523.2	668.2
523.4	664.0
523.6	655.1
523.8	653.0
524.0	651.3
524.2	654.1
524.4	658.9
524.6	662.9
524.8	658.6
525.0	654.1
525.2	647.6
525.4	644.9
525.6	642.7
525.8	646.6
526.0	646.7
526.2	646.8
526.4	645.1
526.6	643.7
526.8	640.7
527.0	637.8
527.2	638.2
527.4	638.6
527.6	635.1
527.8	634.5
528.0	633.0
528.2	629.6
528.4	631.1
528.6	631.3
528.8	630.7
529.0	634.2
529.2	632.3
529.4	628.7
529.6	623.0
529.8	617.3
530.0	613.3
530.2	616.4
530.4	615.5
530.6	616.0
530.8	614.3
531.0	610.9
531.2	607.7
531.4	611.3
531.6	610.6
531.8	607.1
532.0	606.7
532.2	602.3
532.4	601.0
532.6	601.1
532.8	601.5
533.0	596.1
533.2	597.5
533.4	594.2
533.6	594.4
533.8	593.1
534.0	593.4
534.2	590.3
534.4	587.4
534.6	585.5
534.8	581.0
535.0	579.9
535.2	575.8
535.4	575.9
535.6	576.3
535.8	574.2
536.0	569.8
536.2	571.4
536.4	572.4
536.6	574.9
536.8	578.3
537.0	571.5
537.2	563.9
537.4	562.3
537.6	562.8
537.8	560.5
538.0	558.7
538.2	554.5
538.4	552.7
538.6	555.6
538.8	559.2
539.0	559.1
539.2	552.2
539.4	544.6
539.6	542.0
539.8	544.4
540.0	550.2
540.2	553.6
540.4	550.3
540.6	540.3
540.8	534.5
541.0	532.4
541.2	533.8
541.4	535.2
541.6	535.7
541.8	534.5
542.0	532.9
542.2	530.0
542.4	528.8
542.6	526.0
542.8	523.0
543.0	520.5
543.2	518.2
543.4	516.2
543.6	512.3
543.8	508.7
544.0	506.5
544.2	504.6
544.4	507.4
544.6	511.6
544.8	512.1
545.0	510.3
545.2	509.2
545.4	504.5
545.6	500.6
545.8	499.1
546.0	498.6
546.2	496.2
546.4	497.1
546.6	493.4
546.8	489.9
547.0	487.1
547.2	486.0
547.4	483.6
547.6	484.6
547.8	481.4
548.0	477.8
548.2	474.9
548.4	475.7
548.6	474.2
548.8	478.4
549.0	476.6
549.2	474.9
549.4	473.2
549.6	473.8
549.8	469.1
550.0	466.6
550.2	461.7
550.4	457.8
550.6	458.6
550.8	460.3
551.0	459.4
551.2	456.5
551.4	453.8
551.6	451.5
551.8	454.4
552.0	453.8
552.2	451.5
552.4	446.7
552.6	441.7
552.8	442.6
553.0	444.1
553.2	445.3
553.4	442.6
553.6	439.3
553.8	435.6
554.0	433.7
554.2	432.3
554.4	433.9
554.6	432.8
554.8	428.5
555.0	425.7
555.2	424.7
555.4	425.4
555.6	423.8
555.8	420.3
556.0	413.0
556.2	412.3
556.4	413.7
556.6	416.4
556.8	415.6
557.0	413.9
557.2	410.5
557.4	408.6
557.6	405.8
557.8	404.5
558.0	400.1
558.2	397.1
558.4	395.8
558.6	395.0
558.8	395.7
559.0	397.2
559.2	397.1
559.4	397.3
559.6	396.3
559.8	397.1
560.0	394.0
560.2	390.0
560.4	389.1
560.6	387.6
560.8	386.0
561.0	386.1
561.2	381.5
561.4	377.7
561.6	376.0
561.8	373.0
562.0	372.7
562.2	372.8
562.4	371.6
562.6	371.6
562.8	371.4
563.0	368.9
563.2	367.1
563.4	366.6
563.6	364.9
563.8	362.9
564.0	362.3
564.2	360.5
564.4	359.2
564.6	357.6
564.8	356.5
565.0	353.9
565.2	349.8
565.4	348.3
565.6	347.6
565.8	345.4
566.0	347.8
566.2	348.1
566.4	345.5
566.6	344.8
566.8	343.7
567.0	341.6
567.2	340.1
567.4	339.1
567.6	336.6
567.8	333.7
568.0	332.5
568.2	329.9
568.4	328.4
568.6	327.7
568.8	327.9
569.0	327.9
569.2	325.4
569.4	322.1
569.6	321.5
569.8	319.9
570.0	321.3
570.2	318.8
570.4	314.9
570.6	312.7
570.8	314.3
571.0	314.5
571.2	316.2
571.4	314.6
571.6	313.8
571.8	312.2
572.0	313.3
572.2	309.5
572.4	305.4
572.6	306.0
572.8	303.7
573.0	301.6
573.2	300.3
573.4	298.2
573.6	293.6
573.8	295.6
574.0	294.3
574.2	292.0
574.4	291.5
574.6	291.9
574.8	290.6
575.0	290.2
575.2	288.5
575.4	285.2
575.6	283.8
575.8	282.9
576.0	282.4
576.2	282.5
576.4	280.0
576.6	279.2
576.8	278.7
577.0	277.6
577.2	276.4
577.4	274.9
577.6	272.3
577.8	272.1
578.0	270.2
578.2	267.7
578.4	266.5
578.6	265.2
578.8	264.1
579.0	264.9
579.2	262.7
579.4	260.5
579.6	258.9
579.8	260.2
580.0	259.8
580.2	261.3
580.4	260.6
580.6	258.0
580.8	253.6
581.0	251.7
581.2	250.1
581.4	249.8
581.6	250.7
581.8	248.9
582.0	246.9
582.2	244.9
582.4	244.6
582.6	242.4
582.8	241.9
583.0	241.5
583.2	241.5
583.4	240.1
583.6	240.1
583.8	236.8
584.0	235.7
584.2	234.8
584.4	234.5
584.6	233.5
584.8	231.9
585.0	230.1
585.2	229.7
585.4	226.6
585.6	226.5
585.8	225.9
586.0	223.6
586.2	222.0
586.4	222.4
586.6	222.0
586.8	222.4
587.0	220.6
587.2	217.2
587.4	213.0
587.6	212.4
587.8	213.3
588.0	214.5
588.2	214.3
588.4	213.0
588.6	211.0
588.8	209.5
589.0	207.8
589.2	205.6
589.4	204.9
589.6	206.0
589.8	206.5
590.0	206.4
590.2	205.7
590.4	202.6
590.6	202.0
590.8	202.6
591.0	200.8
591.2	200.0
591.4	199.4
591.6	197.2
591.8	198.1
592.0	197.8
592.2	195.4
592.4	196.7
592.6	195.3
592.8	192.7
593.0	191.1
593.2	190.1
593.4	187.2
593.6	189.2
593.8	187.0
594.0	186.9
594.2	186.5
594.4	186.8
594.6	185.9
594.8	185.6
595.0	182.1
595.2	180.9
595.4	180.8
595.6	179.2
595.8	178.9
596.0	179.7
596.2	177.0
596.4	176.5
596.6	176.1
596.8	175.6
597.0	174.4
597.2	173.6
597.4	169.9
597.6	169.6
597.8	169.8
598.0	171.2
598.2	171.1
598.4	170.8
598.6	168.6
598.8	169.3
599.0	169.1
599.2	166.2
599.4	163.9
599.6	162.2
599.8	161.7
600.0	163.4
600.2	161.7
600.4	160.2
600.6	159.3
600.8	157.8
601.0	159.1
601.2	158.8
601.4	157.0
601.6	156.5
601.8	156.4
602.0	154.7
602.2	154.3
602.4	151.7
602.6	150.7
602.8	148.4
603.0	149.2
603.2	149.2
603.4	148.7
603.6	147.6
603.8	146.8
604.0	145.8
604.2	145.4
604.4	144.9
604.6	144.1
604.8	142.5
605.0	142.6
605.2	144.0
605.4	142.9
605.6	141.5
605.8	140.5
606.0	138.6
606.2	139.9
606.4	140.4
606.6	139.4
606.8	136.3
607.0	134.3
607.2	132.3
607.4	131.9
607.6	131.7
607.8	131.5
608.0	130.4
608.2	129.4
608.4	126.6
608.6	126.3
608.8	126.7
609.0	126.6
609.2	127.1
609.4	127.3
609.6	126.9
609.8	127.9
610.0	128.4
610.2	126.3
610.4	122.2
610.6	120.7
610.8	119.1
611.0	118.5
611.2	120.7
611.4	121.5
611.6	120.3
611.8	120.9
612.0	120.5
612.2	118.3
612.4	116.7
612.6	115.8
612.8	113.5
613.0	113.6
613.2	115.2
613.4	113.6
613.6	113.0
613.8	112.2
614.0	111.8
614.2	112.0
614.4	111.3
614.6	108.9
614.8	108.3
615.0	108.0
615.2	109.1
615.4	108.0
615.6	106.6
615.8	104.6
616.0	103.8
616.2	104.3
616.4	104.0
616.6	103.0
616.8	102.4
617.0	102.6
617.2	101.4
617.4	101.4
617.6	101.5
617.8	101.9
618.0	101.6
618.2	102.0
618.4	100.2
618.6	99.15
618.8	97.97
619.0	96.96
619.2	96.71
619.4	96.41
619.6	95.87
619.8	95.25
620.0	94.99
620.2	94.04
620.4	95.42
620.6	94.67
620.8	93.68
621.0	91.20
621.2	88.91
621.4	87.09
621.6	89.32
621.8	90.20
622.0	90.07
622.2	89.12
622.4	87.27
622.6	86.05
622.8	87.53
623.0	87.50
623.2	86.08
623.4	85.01
623.6	84.14
623.8	83.45
624.0	84.88
624.2	85.79
624.4	85.97
624.6	84.62
624.8	83.64
625.0	81.82
625.2	80.51
625.4	79.79
625.6	79.44
625.8	79.45
626.0	79.47
626.2	79.27
626.4	78.13
626.6	77.58
626.8	78.55
627.0	79.06
627.2	79.20
627.4	79.08
627.6	77.00
627.8	76.12
628.0	74.03
628.2	71.73
628.4	72.96
628.6	73.20
628.8	73.30
629.0	74.74
629.2	72.68
629.4	71.87
629.6	71.83
629.8	70.77
630.0	70.41
630.2	70.79
630.4	70.00
630.6	69.90
630.8	68.37
631.0	68.87
631.2	68.75
631.4	68.79
631.6	67.52
631.8	66.85
632.0	65.99
632.2	65.94
632.4	64.92
632.6	65.36
632.8	64.83
633.0	64.32
633.2	64.53
633.4	63.64
633.6	63.20
633.8	63.93
634.0	63.21
634.2	61.98
634.4	61.39
634.6	61.12
634.8	60.66
635.0	60.52
635.2	60.13
635.4	59.75
635.6	60.21
635.8	60.58
636.0	58.97
636.2	58.48
636.4	57.83
636.6	57.30
636.8	58.52
637.0	58.38
637.2	57.09
637.4	57.86
637.6	57.21
637.8	56.83
638.0	57.05
638.2	55.44
638.4	54.28
638.6	54.77
638.8	54.38
639.0	54.32
639.2	55.02
639.4	54.53
639.6	54.11
639.8	54.07
640.0	52.80
640.2	51.91
640.4	51.74
640.6	51.75
640.8	51.29
641.0	51.10
641.2	50.39
641.4	50.05
641.6	49.28
641.8	49.75
642.0	49.64
642.2	48.40
642.4	48.46
642.6	48.07
642.8	47.42
643.0	47.10
643.2	46.56
643.4	45.39
643.6	45.71
643.8	46.26
644.0	47.69
644.2	47.82
644.4	46.41
644.6	44.89
644.8	43.81
645.0	43.79
645.2	43.97
645.4	43.74
645.6	43.05
645.8	43.31
646.0	43.41
646.2	44.12
646.4	43.65
646.6	43.79
646.8	43.27
647.0	42.31
647.2	41.37
647.4	41.04
647.6	40.68
647.8	40.64
648.0	39.28
648.2	39.04
648.4	39.96
648.6	41.33
648.8	41.69
649.0	40.36
649.2	38.35
649.4	38.08
649.6	38.54
649.8	39.53
650.0	39.41
650.2	38.87
650.4	38.29
650.6	37.49
650.8	37.97
651.0	37.91
651.2	37.00
651.4	36.76
651.6	36.24
651.8	35.94
652.0	36.01
652.2	36.04
652.4	35.66
652.6	35.35
652.8	34.73
653.0	34.64
653.2	34.07
653.4	33.76
653.6	33.60
653.8	33.34
654.0	33.06
654.2	32.77
654.4	33.17
654.6	32.66
654.8	32.25
655.0	31.74
655.2	31.48
655.4	31.20
655.6	31.39
655.8	31.44
656.0	31.05
656.2	31.00
656.4	31.35
656.6	30.83
656.8	30.69
657.0	31.12
657.2	30.92
657.4	30.66
657.6	29.59
657.8	27.99
658.0	27.85
658.2	28.66
658.4	29.34
658.6	29.13
658.8	28.71
659.0	28.51
659.2	29.30
659.4	29.68
659.6	29.17
659.8	27.83
660.0	26.79
660.2	26.30
660.4	26.76
660.6	27.41
660.8	28.04
661.0	28.27
661.2	27.64
661.4	26.32
661.6	25.95
661.8	25.54
662.0	25.60
662.2	26.02
662.4	25.91
662.6	25.32
662.8	25.77
663.0	25.51
663.2	25.92
663.4	25.88
663.6	25.57
663.8	24.68
664.0	24.71
664.2	24.63
664.4	24.73
664.6	24.75
664.8	24.65
665.0	23.85
665.2	23.47
665.4	23.04
665.6	22.25
665.8	22.58
666.0	23.27
666.2	23.76
666.4	23.40
666.6	23.82
666.8	23.34
667.0	22.68
667.2	22.83
667.4	22.57
667.6	22.17
667.8	22.42
668.0	22.26
668.2	21.83
668.4	21.95
668.6	21.96
668.8	21.93
669.0	21.34
669.2	21.10
669.4	20.56
669.6	19.93
669.8	20.19
670.0	20.41
670.2	20.60
670.4	20.82
670.6	20.90
670.8	20.56
671.0	20.58
671.2	20.25
671.4	19.63
671.6	18.61
671.8	18.66
672.0	18.73
672.2	19.02
672.4	18.91
672.6	19.21
672.8	18.70
673.0	18.19
673.2	17.41
673.4	17.10
673.6	17.32
673.8	19.05
674.0	19.52
674.2	19.47
674.4	18.81
674.6	18.12
674.8	17.59
675.0	17.56
675.2	17.37
675.4	17.26
675.6	16.96
675.8	17.20
676.0	16.73
676.2	16.60
676.4	16.51
676.6	16.48
676.8	16.28
677.0	16.64
677.2	16.01
677.4	15.46
677.6	15.63
677.8	16.17
678.0	16.32
678.2	16.18
678.4	15.98
678.6	15.89
678.8	15.79
679.0	15.78
679.2	15.21
679.4	14.81
679.6	15.00
679.8	14.89
680.0	14.05

