Sample:	'20211010A(EM)
File name:	B-CDS 6.FDS
Run date:	'14:17:59, 06/08/2023
Operator:	Administrator
Comment:	'

Instrument
Model:	F-4700 FL Spectrophotometer
Serial number:	2019-001
ROM Version:	5J24010 00

Instrument parameters
Measurement type:	Wavelength scan
Scan mode:	Emission
Data mode:	Fluorescence
EX WL:	350.0 nm
EM  Start WL:	370.0 nm
EM  End WL:	680.0 nm
Scan speed:	1200 nm/min
Delay:	0.0 s
EX Slit:	10.0 nm
EM Slit:	10.0 nm
PMT Voltage:	550 V
Response:	0.002 s
Corrected spectra:	Off
Shutter control:	On

Processing performed
Savitsky-Golay smoothed
Smoothing order:	3
Number of points:	7
Number of times:	1

Peak integration
Integration method:	Rectangular
Sensitivity:	1
Threshold:	1.000

Peaks
No.	Start(nm)	Apex(nm)	End(nm)	Height(Data)	Valley(nm)	Valley(Data)
1	370.0	374.2	375.0	4.735	375.0	3.566
2	375.0	375.6	378.8	4.901	378.8	3.458
3	378.8	385.2	387.4	4.965	387.4	3.425
4	387.4	389.2	395.4	5.366	395.4	4.237
5	395.4	396.0	396.8	5.512	396.8	4.170
6	396.8	397.8	399.6	6.225	399.6	4.887
7	399.6	497.4	497.8	1887	497.8	1868
8	497.8	500.4	502.2	1898	502.2	1867
9	502.2	503.0	601.4	1896	601.4	348.6
10	601.4	602.2	648.2	357.9	648.2	89.79
11	648.2	648.6	654.0	92.69	654.0	73.19
12	654.0	655.0	664.8	76.37	664.8	52.79
13	664.8	665.4	676.4	54.77	676.4	35.48
14	676.4	678.0	680.0	37.75	680.0	32.56

Data points
nm	Data
370.0	3.338
370.2	3.797
370.4	3.711
370.6	3.390
370.8	3.390
371.0	3.417
371.2	3.434
371.4	3.518
371.6	3.274
371.8	3.446
372.0	4.181
372.2	4.496
372.4	4.470
372.6	4.432
372.8	4.170
373.0	4.333
373.2	4.398
373.4	4.698
373.6	4.656
373.8	4.585
374.0	4.708
374.2	4.735
374.4	4.271
374.6	4.053
374.8	3.632
375.0	3.566
375.2	4.091
375.4	4.412
375.6	4.901
375.8	4.732
376.0	4.321
376.2	4.363
376.4	4.337
376.6	4.454
376.8	4.573
377.0	4.283
377.2	4.146
377.4	4.021
377.6	3.826
377.8	4.071
378.0	3.710
378.2	3.710
378.4	3.728
378.6	3.619
378.8	3.458
379.0	3.695
379.2	3.859
379.4	4.305
379.6	4.349
379.8	3.895
380.0	3.620
380.2	4.120
380.4	4.375
380.6	4.475
380.8	4.576
381.0	4.229
381.2	4.414
381.4	4.515
381.6	4.089
381.8	3.859
382.0	3.920
382.2	4.179
382.4	4.433
382.6	4.481
382.8	4.077
383.0	4.370
383.2	4.412
383.4	4.182
383.6	4.078
383.8	4.019
384.0	3.661
384.2	3.740
384.4	3.878
384.6	3.925
384.8	4.235
385.0	4.543
385.2	4.965
385.4	4.706
385.6	4.495
385.8	4.312
386.0	4.137
386.2	4.518
386.4	4.855
386.6	4.949
386.8	4.621
387.0	4.220
387.2	3.627
387.4	3.425
387.6	3.685
387.8	4.261
388.0	4.468
388.2	4.502
388.4	4.421
388.6	4.425
388.8	4.802
389.0	5.099
389.2	5.366
389.4	5.263
389.6	5.047
389.8	4.937
390.0	4.828
390.2	4.675
390.4	4.711
390.6	4.650
390.8	4.813
391.0	5.169
391.2	5.077
391.4	4.715
391.6	4.544
391.8	4.451
392.0	4.774
392.2	5.058
392.4	4.772
392.6	4.633
392.8	4.485
393.0	4.512
393.2	4.499
393.4	4.647
393.6	4.809
393.8	5.243
394.0	5.145
394.2	4.837
394.4	4.560
394.6	4.660
394.8	4.748
395.0	4.827
395.2	4.471
395.4	4.237
395.6	4.561
395.8	4.961
396.0	5.512
396.2	5.089
396.4	4.554
396.6	4.186
396.8	4.170
397.0	4.431
397.2	5.431
397.4	5.655
397.6	6.040
397.8	6.225
398.0	6.163
398.2	5.908
398.4	5.871
398.6	5.926
398.8	6.121
399.0	6.117
399.2	5.862
399.4	5.112
399.6	4.887
399.8	4.928
400.0	5.405
400.2	5.851
400.4	6.328
400.6	6.365
400.8	6.476
401.0	6.288
401.2	6.701
401.4	6.796
401.6	6.971
401.8	7.264
402.0	7.208
402.2	7.035
402.4	7.112
402.6	6.938
402.8	7.031
403.0	7.697
403.2	8.095
403.4	8.413
403.6	8.831
403.8	8.594
404.0	8.362
404.2	8.955
404.4	9.519
404.6	9.851
404.8	10.37
405.0	10.25
405.2	9.418
405.4	9.988
405.6	10.36
405.8	10.83
406.0	11.10
406.2	11.14
406.4	10.75
406.6	11.17
406.8	11.38
407.0	12.68
407.2	13.23
407.4	13.23
407.6	13.27
407.8	13.35
408.0	13.28
408.2	14.67
408.4	15.54
408.6	15.65
408.8	16.13
409.0	16.22
409.2	17.11
409.4	18.73
409.6	19.74
409.8	20.03
410.0	20.34
410.2	20.19
410.4	19.87
410.6	19.84
410.8	21.12
411.0	22.62
411.2	24.34
411.4	26.44
411.6	26.97
411.8	27.02
412.0	27.48
412.2	28.25
412.4	29.65
412.6	31.21
412.8	32.48
413.0	32.06
413.2	31.68
413.4	32.50
413.6	33.80
413.8	35.83
414.0	38.73
414.2	39.38
414.4	40.02
414.6	40.58
414.8	40.04
415.0	41.12
415.2	43.85
415.4	45.79
415.6	48.17
415.8	52.08
416.0	53.65
416.2	54.47
416.4	55.71
416.6	57.07
416.8	57.85
417.0	62.08
417.2	62.85
417.4	63.89
417.6	65.45
417.8	66.52
418.0	68.69
418.2	71.31
418.4	72.99
418.6	76.45
418.8	78.53
419.0	81.02
419.2	84.26
419.4	86.47
419.6	88.98
419.8	90.50
420.0	92.36
420.2	94.94
420.4	96.80
420.6	99.88
420.8	103.6
421.0	105.5
421.2	109.3
421.4	112.7
421.6	114.9
421.8	118.4
422.0	122.0
422.2	124.0
422.4	127.4
422.6	131.2
422.8	134.2
423.0	138.9
423.2	142.6
423.4	144.4
423.6	148.0
423.8	151.2
424.0	153.3
424.2	157.2
424.4	161.3
424.6	162.0
424.8	166.6
425.0	170.4
425.2	173.3
425.4	177.5
425.6	181.8
425.8	184.7
426.0	188.7
426.2	192.1
426.4	193.6
426.6	195.6
426.8	199.0
427.0	203.7
427.2	207.5
427.4	213.6
427.6	217.9
427.8	220.0
428.0	223.2
428.2	226.4
428.4	231.8
428.6	236.4
428.8	241.7
429.0	246.1
429.2	249.4
429.4	251.2
429.6	256.1
429.8	256.1
430.0	262.6
430.2	267.4
430.4	270.6
430.6	272.6
430.8	276.0
431.0	279.6
431.2	287.2
431.4	289.0
431.6	293.4
431.8	293.6
432.0	293.4
432.2	298.6
432.4	303.7
432.6	308.2
432.8	318.4
433.0	321.3
433.2	323.0
433.4	327.6
433.6	330.9
433.8	333.0
434.0	338.4
434.2	338.4
434.4	339.9
434.6	344.1
434.8	352.1
435.0	355.5
435.2	361.3
435.4	363.3
435.6	364.7
435.8	367.1
436.0	373.7
436.2	379.9
436.4	384.2
436.6	386.1
436.8	387.3
437.0	393.0
437.2	398.2
437.4	405.0
437.6	406.7
437.8	408.8
438.0	409.9
438.2	415.1
438.4	421.7
438.6	423.9
438.8	426.1
439.0	430.8
439.2	431.3
439.4	436.4
439.6	441.5
439.8	443.6
440.0	443.8
440.2	447.0
440.4	451.7
440.6	459.9
440.8	464.9
441.0	468.7
441.2	467.5
441.4	467.7
441.6	472.6
441.8	477.9
442.0	482.4
442.2	487.9
442.4	494.8
442.6	495.7
442.8	494.3
443.0	496.3
443.2	497.5
443.4	503.1
443.6	513.4
443.8	516.0
444.0	514.9
444.2	523.4
444.4	526.4
444.6	526.9
444.8	529.9
445.0	532.6
445.2	535.5
445.4	543.7
445.6	547.9
445.8	549.5
446.0	554.1
446.2	555.8
446.4	555.9
446.6	559.5
446.8	561.6
447.0	565.6
447.2	573.5
447.4	574.2
447.6	575.0
447.8	581.8
448.0	583.0
448.2	592.8
448.4	603.7
448.6	608.0
448.8	609.7
449.0	614.5
449.2	612.9
449.4	617.4
449.6	622.9
449.8	624.7
450.0	630.5
450.2	637.1
450.4	640.6
450.6	641.7
450.8	642.7
451.0	643.8
451.2	649.8
451.4	656.9
451.6	662.9
451.8	668.0
452.0	675.2
452.2	679.7
452.4	685.1
452.6	690.0
452.8	692.2
453.0	696.3
453.2	699.7
453.4	698.4
453.6	704.2
453.8	710.9
454.0	715.8
454.2	725.9
454.4	733.7
454.6	739.5
454.8	748.3
455.0	751.7
455.2	751.5
455.4	754.6
455.6	760.6
455.8	771.4
456.0	777.4
456.2	782.3
456.4	788.1
456.6	790.9
456.8	794.9
457.0	803.6
457.2	809.6
457.4	815.1
457.6	820.5
457.8	827.0
458.0	832.4
458.2	841.3
458.4	853.5
458.6	861.4
458.8	863.9
459.0	866.8
459.2	869.4
459.4	875.8
459.6	885.6
459.8	899.2
460.0	909.1
460.2	911.4
460.4	914.8
460.6	919.6
460.8	921.6
461.0	925.7
461.2	932.5
461.4	938.9
461.6	950.9
461.8	962.4
462.0	973.6
462.2	981.2
462.4	984.6
462.6	992.6
462.8	1001
463.0	1009
463.2	1017
463.4	1025
463.6	1030
463.8	1036
464.0	1039
464.2	1048
464.4	1050
464.6	1054
464.8	1058
465.0	1069
465.2	1073
465.4	1090
465.6	1098
465.8	1098
466.0	1099
466.2	1115
466.4	1121
466.6	1134
466.8	1147
467.0	1149
467.2	1153
467.4	1168
467.6	1176
467.8	1183
468.0	1190
468.2	1192
468.4	1205
468.6	1219
468.8	1233
469.0	1237
469.2	1229
469.4	1227
469.6	1240
469.8	1260
470.0	1275
470.2	1284
470.4	1278
470.6	1277
470.8	1280
471.0	1292
471.2	1302
471.4	1313
471.6	1312
471.8	1320
472.0	1323
472.2	1336
472.4	1347
472.6	1355
472.8	1355
473.0	1362
473.2	1364
473.4	1379
473.6	1398
473.8	1411
474.0	1420
474.2	1420
474.4	1419
474.6	1421
474.8	1425
475.0	1428
475.2	1439
475.4	1443
475.6	1457
475.8	1467
476.0	1472
476.2	1480
476.4	1485
476.6	1484
476.8	1492
477.0	1498
477.2	1507
477.4	1517
477.6	1519
477.8	1526
478.0	1537
478.2	1546
478.4	1555
478.6	1557
478.8	1556
479.0	1563
479.2	1570
479.4	1581
479.6	1584
479.8	1587
480.0	1593
480.2	1596
480.4	1600
480.6	1605
480.8	1609
481.0	1621
481.2	1627
481.4	1643
481.6	1653
481.8	1655
482.0	1658
482.2	1661
482.4	1655
482.6	1664
482.8	1673
483.0	1684
483.2	1686
483.4	1691
483.6	1693
483.8	1706
484.0	1714
484.2	1718
484.4	1718
484.6	1709
484.8	1712
485.0	1721
485.2	1727
485.4	1733
485.6	1746
485.8	1747
486.0	1757
486.2	1757
486.4	1758
486.6	1762
486.8	1767
487.0	1769
487.2	1784
487.4	1787
487.6	1788
487.8	1794
488.0	1792
488.2	1796
488.4	1807
488.6	1813
488.8	1815
489.0	1817
489.2	1819
489.4	1820
489.6	1817
489.8	1815
490.0	1822
490.2	1826
490.4	1837
490.6	1838
490.8	1846
491.0	1852
491.2	1858
491.4	1860
491.6	1859
491.8	1852
492.0	1852
492.2	1855
492.4	1856
492.6	1861
492.8	1857
493.0	1856
493.2	1857
493.4	1855
493.6	1866
493.8	1867
494.0	1866
494.2	1869
494.4	1872
494.6	1864
494.8	1872
495.0	1875
495.2	1878
495.4	1885
495.6	1882
495.8	1876
496.0	1877
496.2	1885
496.4	1883
496.6	1878
496.8	1879
497.0	1883
497.2	1884
497.4	1887
497.6	1884
497.8	1868
498.0	1870
498.2	1875
498.4	1883
498.6	1891
498.8	1895
499.0	1884
499.2	1888
499.4	1884
499.6	1889
499.8	1894
500.0	1897
500.2	1893
500.4	1898
500.6	1887
500.8	1889
501.0	1888
501.2	1894
501.4	1891
501.6	1886
501.8	1877
502.0	1870
502.2	1867
502.4	1876
502.6	1883
502.8	1891
503.0	1896
503.2	1889
503.4	1880
503.6	1879
503.8	1883
504.0	1881
504.2	1879
504.4	1875
504.6	1867
504.8	1875
505.0	1874
505.2	1870
505.4	1862
505.6	1856
505.8	1851
506.0	1856
506.2	1855
506.4	1858
506.6	1848
506.8	1838
507.0	1842
507.2	1842
507.4	1850
507.6	1850
507.8	1839
508.0	1834
508.2	1839
508.4	1830
508.6	1832
508.8	1821
509.0	1809
509.2	1816
509.4	1820
509.6	1824
509.8	1824
510.0	1811
510.2	1798
510.4	1803
510.6	1800
510.8	1801
511.0	1799
511.2	1796
511.4	1790
511.6	1798
511.8	1798
512.0	1795
512.2	1786
512.4	1781
512.6	1771
512.8	1776
513.0	1786
513.2	1790
513.4	1785
513.6	1776
513.8	1754
514.0	1749
514.2	1760
514.4	1767
514.6	1766
514.8	1757
515.0	1745
515.2	1738
515.4	1744
515.6	1740
515.8	1736
516.0	1733
516.2	1732
516.4	1720
516.6	1720
516.8	1712
517.0	1718
517.2	1722
517.4	1726
517.6	1720
517.8	1719
518.0	1714
518.2	1715
518.4	1701
518.6	1695
518.8	1684
519.0	1680
519.2	1672
519.4	1673
519.6	1669
519.8	1672
520.0	1670
520.2	1670
520.4	1664
520.6	1660
520.8	1655
521.0	1647
521.2	1647
521.4	1643
521.6	1644
521.8	1636
522.0	1633
522.2	1630
522.4	1632
522.6	1629
522.8	1625
523.0	1615
523.2	1607
523.4	1601
523.6	1597
523.8	1596
524.0	1596
524.2	1603
524.4	1599
524.6	1599
524.8	1597
525.0	1595
525.2	1586
525.4	1584
525.6	1576
525.8	1574
526.0	1572
526.2	1574
526.4	1567
526.6	1567
526.8	1558
527.0	1553
527.2	1546
527.4	1547
527.6	1549
527.8	1546
528.0	1540
528.2	1535
528.4	1527
528.6	1518
528.8	1517
529.0	1516
529.2	1520
529.4	1523
529.6	1519
529.8	1512
530.0	1504
530.2	1500
530.4	1502
530.6	1494
530.8	1488
531.0	1485
531.2	1483
531.4	1480
531.6	1485
531.8	1482
532.0	1489
532.2	1483
532.4	1480
532.6	1471
532.8	1468
533.0	1463
533.2	1457
533.4	1449
533.6	1439
533.8	1441
534.0	1443
534.2	1444
534.4	1439
534.6	1437
534.8	1423
535.0	1420
535.2	1416
535.4	1411
535.6	1412
535.8	1408
536.0	1401
536.2	1397
536.4	1397
536.6	1393
536.8	1388
537.0	1384
537.2	1380
537.4	1370
537.6	1363
537.8	1361
538.0	1358
538.2	1361
538.4	1360
538.6	1356
538.8	1355
539.0	1356
539.2	1357
539.4	1354
539.6	1347
539.8	1341
540.0	1332
540.2	1322
540.4	1318
540.6	1318
540.8	1313
541.0	1309
541.2	1302
541.4	1294
541.6	1294
541.8	1299
542.0	1292
542.2	1287
542.4	1285
542.6	1279
542.8	1279
543.0	1280
543.2	1271
543.4	1261
543.6	1256
543.8	1250
544.0	1251
544.2	1253
544.4	1250
544.6	1249
544.8	1240
545.0	1232
545.2	1230
545.4	1227
545.6	1222
545.8	1224
546.0	1211
546.2	1195
546.4	1191
546.6	1187
546.8	1186
547.0	1187
547.2	1183
547.4	1181
547.6	1175
547.8	1164
548.0	1159
548.2	1150
548.4	1151
548.6	1159
548.8	1158
549.0	1155
549.2	1152
549.4	1145
549.6	1140
549.8	1131
550.0	1125
550.2	1113
550.4	1105
550.6	1107
550.8	1107
551.0	1107
551.2	1103
551.4	1090
551.6	1085
551.8	1087
552.0	1090
552.2	1093
552.4	1087
552.6	1080
552.8	1074
553.0	1064
553.2	1063
553.4	1063
553.6	1058
553.8	1058
554.0	1053
554.2	1043
554.4	1034
554.6	1034
554.8	1031
555.0	1027
555.2	1022
555.4	1025
555.6	1014
555.8	1016
556.0	1012
556.2	1004
556.4	990.7
556.6	988.0
556.8	979.4
557.0	980.3
557.2	983.2
557.4	982.1
557.6	975.9
557.8	972.2
558.0	963.7
558.2	957.1
558.4	957.0
558.6	955.8
558.8	955.6
559.0	958.3
559.2	948.3
559.4	932.7
559.6	927.1
559.8	925.5
560.0	924.6
560.2	928.8
560.4	921.9
560.6	912.5
560.8	910.7
561.0	910.1
561.2	906.4
561.4	904.6
561.6	895.6
561.8	888.6
562.0	885.6
562.2	885.1
562.4	881.9
562.6	885.4
562.8	882.9
563.0	874.8
563.2	870.6
563.4	868.8
563.6	863.7
563.8	862.3
564.0	856.5
564.2	849.3
564.4	842.2
564.6	843.9
564.8	841.9
565.0	834.6
565.2	829.6
565.4	830.6
565.6	823.0
565.8	821.0
566.0	814.4
566.2	807.1
566.4	809.0
566.6	816.4
566.8	810.5
567.0	800.9
567.2	791.9
567.4	785.5
567.6	785.3
567.8	788.1
568.0	785.8
568.2	780.6
568.4	776.6
568.6	772.6
568.8	768.8
569.0	762.6
569.2	757.4
569.4	755.5
569.6	750.9
569.8	752.7
570.0	752.1
570.2	751.6
570.4	748.9
570.6	743.3
570.8	732.5
571.0	728.9
571.2	723.7
571.4	725.2
571.6	724.8
571.8	721.3
572.0	718.3
572.2	715.5
572.4	711.1
572.6	708.5
572.8	706.6
573.0	705.8
573.2	701.6
573.4	694.5
573.6	691.2
573.8	689.5
574.0	687.1
574.2	690.9
574.4	687.4
574.6	680.4
574.8	673.8
575.0	668.7
575.2	669.0
575.4	673.2
575.6	674.0
575.8	673.7
576.0	666.7
576.2	658.7
576.4	655.3
576.6	649.9
576.8	646.5
577.0	642.3
577.2	636.9
577.4	634.7
577.6	631.6
577.8	629.8
578.0	632.2
578.2	628.0
578.4	626.5
578.6	626.9
578.8	620.7
579.0	616.6
579.2	614.7
579.4	606.1
579.6	602.4
579.8	596.9
580.0	594.7
580.2	598.1
580.4	596.6
580.6	595.7
580.8	591.7
581.0	589.0
581.2	585.5
581.4	583.3
581.6	576.2
581.8	576.1
582.0	572.9
582.2	571.8
582.4	568.7
582.6	564.0
582.8	556.2
583.0	557.1
583.2	558.2
583.4	559.0
583.6	561.1
583.8	557.6
584.0	550.7
584.2	545.4
584.4	545.4
584.6	545.5
584.8	546.6
585.0	541.6
585.2	535.0
585.4	527.1
585.6	523.5
585.8	518.1
586.0	517.6
586.2	515.2
586.4	516.6
586.6	518.3
586.8	522.1
587.0	520.2
587.2	514.0
587.4	509.2
587.6	502.9
587.8	494.5
588.0	491.2
588.2	494.3
588.4	493.2
588.6	499.0
588.8	497.5
589.0	492.8
589.2	488.1
589.4	484.8
589.6	478.8
589.8	474.8
590.0	473.7
590.2	474.7
590.4	475.7
590.6	473.0
590.8	472.8
591.0	463.1
591.2	464.5
591.4	459.3
591.6	456.2
591.8	457.7
592.0	458.1
592.2	453.1
592.4	451.9
592.6	445.1
592.8	441.2
593.0	440.3
593.2	434.7
593.4	433.3
593.6	429.6
593.8	426.0
594.0	426.6
594.2	427.6
594.4	425.2
594.6	420.5
594.8	418.0
595.0	415.0
595.2	415.1
595.4	414.4
595.6	413.6
595.8	407.5
596.0	411.4
596.2	410.3
596.4	409.1
596.6	404.5
596.8	398.1
597.0	393.5
597.2	398.0
597.4	397.0
597.6	393.8
597.8	390.3
598.0	385.1
598.2	381.6
598.4	383.0
598.6	380.7
598.8	375.1
599.0	372.4
599.2	371.9
599.4	372.4
599.6	375.6
599.8	375.6
600.0	374.4
600.2	369.7
600.4	367.1
600.6	366.8
600.8	362.6
601.0	359.5
601.2	355.1
601.4	348.6
601.6	350.1
601.8	353.0
602.0	354.6
602.2	357.9
602.4	356.3
602.6	352.4
602.8	352.1
603.0	345.1
603.2	343.5
603.4	339.1
603.6	334.3
603.8	334.0
604.0	332.7
604.2	331.0
604.4	333.0
604.6	330.8
604.8	326.8
605.0	323.3
605.2	317.7
605.4	319.5
605.6	319.4
605.8	319.0
606.0	319.6
606.2	317.1
606.4	314.6
606.6	313.9
606.8	309.5
607.0	304.6
607.2	305.8
607.4	301.2
607.6	301.8
607.8	300.5
608.0	300.3
608.2	296.7
608.4	296.8
608.6	289.3
608.8	289.4
609.0	289.6
609.2	290.8
609.4	289.1
609.6	289.6
609.8	286.1
610.0	284.7
610.2	284.5
610.4	282.2
610.6	278.8
610.8	276.7
611.0	274.3
611.2	273.2
611.4	271.8
611.6	271.1
611.8	270.3
612.0	268.9
612.2	268.5
612.4	267.0
612.6	262.2
612.8	258.3
613.0	257.3
613.2	256.3
613.4	256.8
613.6	255.3
613.8	255.0
614.0	252.1
614.2	251.2
614.4	247.6
614.6	246.0
614.8	244.8
615.0	245.7
615.2	244.6
615.4	243.6
615.6	241.8
615.8	244.1
616.0	243.3
616.2	243.8
616.4	242.3
616.6	236.7
616.8	231.6
617.0	232.0
617.2	230.9
617.4	233.8
617.6	232.2
617.8	229.8
618.0	224.9
618.2	225.6
618.4	225.6
618.6	225.4
618.8	219.6
619.0	216.7
619.2	211.5
619.4	209.4
619.6	210.5
619.8	213.8
620.0	212.3
620.2	209.8
620.4	208.8
620.6	205.2
620.8	205.9
621.0	207.5
621.2	207.3
621.4	204.5
621.6	204.0
621.8	203.2
622.0	204.9
622.2	203.6
622.4	201.9
622.6	197.2
622.8	195.6
623.0	197.5
623.2	197.7
623.4	194.6
623.6	192.2
623.8	190.5
624.0	191.4
624.2	191.6
624.4	191.2
624.6	188.3
624.8	186.6
625.0	183.7
625.2	181.7
625.4	178.8
625.6	179.7
625.8	181.6
626.0	180.8
626.2	178.6
626.4	178.0
626.6	176.2
626.8	175.4
627.0	176.0
627.2	172.2
627.4	171.1
627.6	170.9
627.8	171.5
628.0	171.9
628.2	173.0
628.4	170.1
628.6	168.0
628.8	166.1
629.0	164.1
629.2	162.9
629.4	163.5
629.6	161.4
629.8	162.1
630.0	163.1
630.2	163.6
630.4	161.0
630.6	159.8
630.8	157.4
631.0	157.3
631.2	154.7
631.4	153.3
631.6	149.7
631.8	150.5
632.0	150.1
632.2	153.2
632.4	151.2
632.6	147.9
632.8	146.0
633.0	146.2
633.2	145.8
633.4	146.5
633.6	142.6
633.8	140.3
634.0	139.1
634.2	139.1
634.4	139.7
634.6	137.5
634.8	135.5
635.0	137.2
635.2	137.1
635.4	137.8
635.6	137.2
635.8	135.8
636.0	133.7
636.2	133.9
636.4	130.4
636.6	130.9
636.8	129.5
637.0	130.8
637.2	130.3
637.4	130.6
637.6	127.7
637.8	127.1
638.0	125.8
638.2	126.4
638.4	126.6
638.6	124.9
638.8	124.3
639.0	122.2
639.2	122.5
639.4	123.5
639.6	124.1
639.8	121.0
640.0	118.5
640.2	117.5
640.4	117.1
640.6	117.8
640.8	117.0
641.0	113.6
641.2	109.7
641.4	109.4
641.6	106.9
641.8	109.1
642.0	111.2
642.2	110.5
642.4	109.6
642.6	109.1
642.8	106.9
643.0	108.4
643.2	108.2
643.4	105.8
643.6	104.9
643.8	104.4
644.0	105.7
644.2	107.1
644.4	106.1
644.6	102.6
644.8	102.1
645.0	100.3
645.2	101.3
645.4	101.4
645.6	100.6
645.8	97.75
646.0	96.64
646.2	95.51
646.4	96.33
646.6	96.69
646.8	96.41
647.0	94.70
647.2	91.83
647.4	91.50
647.6	90.58
647.8	91.18
648.0	91.14
648.2	89.79
648.4	90.95
648.6	92.69
648.8	91.93
649.0	91.58
649.2	89.40
649.4	87.62
649.6	88.01
649.8	87.33
650.0	86.28
650.2	85.24
650.4	83.07
650.6	83.53
650.8	83.99
651.0	84.22
651.2	84.66
651.4	85.77
651.6	84.32
651.8	82.00
652.0	81.57
652.2	79.06
652.4	77.65
652.6	78.08
652.8	79.26
653.0	79.59
653.2	80.89
653.4	79.21
653.6	76.10
653.8	73.84
654.0	73.19
654.2	73.30
654.4	75.32
654.6	75.95
654.8	75.10
655.0	76.37
655.2	76.29
655.4	73.90
655.6	73.00
655.8	71.05
656.0	69.38
656.2	70.55
656.4	72.46
656.6	69.91
656.8	68.62
657.0	68.87
657.2	68.34
657.4	69.14
657.6	70.22
657.8	69.03
658.0	67.82
658.2	67.22
658.4	66.63
658.6	65.53
658.8	65.27
659.0	65.71
659.2	66.46
659.4	65.56
659.6	65.27
659.8	64.13
660.0	63.63
660.2	63.28
660.4	64.49
660.6	63.49
660.8	61.77
661.0	61.18
661.2	60.66
661.4	60.05
661.6	61.15
661.8	61.36
662.0	59.94
662.2	60.53
662.4	60.10
662.6	59.50
662.8	58.09
663.0	56.95
663.2	57.45
663.4	58.53
663.6	58.35
663.8	58.15
664.0	56.63
664.2	54.69
664.4	54.10
664.6	53.08
664.8	52.79
665.0	53.29
665.2	54.56
665.4	54.77
665.6	54.72
665.8	53.29
666.0	51.73
666.2	51.25
666.4	51.14
666.6	51.86
666.8	51.75
667.0	52.20
667.2	50.69
667.4	50.52
667.6	50.00
667.8	50.80
668.0	50.87
668.2	51.62
668.4	49.88
668.6	47.51
668.8	45.03
669.0	43.67
669.2	44.46
669.4	44.76
669.6	46.45
669.8	47.08
670.0	46.73
670.2	45.53
670.4	44.34
670.6	43.85
670.8	44.09
671.0	45.19
671.2	45.88
671.4	45.34
671.6	44.65
671.8	44.92
672.0	43.62
672.2	43.40
672.4	43.09
672.6	42.07
672.8	41.66
673.0	42.15
673.2	41.71
673.4	41.85
673.6	41.41
673.8	40.54
674.0	40.48
674.2	40.67
674.4	40.77
674.6	40.73
674.8	39.36
675.0	39.25
675.2	40.28
675.4	40.79
675.6	40.91
675.8	40.11
676.0	36.95
676.2	35.97
676.4	35.48
676.6	35.60
676.8	36.81
677.0	37.05
677.2	36.05
677.4	36.37
677.6	36.45
677.8	37.12
678.0	37.75
678.2	37.48
678.4	36.03
678.6	36.02
678.8	35.06
679.0	35.13
679.2	34.90
679.4	35.34
679.6	34.42
679.8	33.36
680.0	32.56

