Sample:	'20211010A(EM)
File name:	B-CDS 7.FDS
Run date:	'14:21:56, 06/08/2023
Operator:	Administrator
Comment:	'

Instrument
Model:	F-4700 FL Spectrophotometer
Serial number:	2019-001
ROM Version:	5J24010 00

Instrument parameters
Measurement type:	Wavelength scan
Scan mode:	Emission
Data mode:	Fluorescence
EX WL:	350.0 nm
EM  Start WL:	370.0 nm
EM  End WL:	680.0 nm
Scan speed:	1200 nm/min
Delay:	0.0 s
EX Slit:	10.0 nm
EM Slit:	10.0 nm
PMT Voltage:	550 V
Response:	0.002 s
Corrected spectra:	Off
Shutter control:	On

Processing performed
Savitsky-Golay smoothed
Smoothing order:	3
Number of points:	7
Number of times:	1

Peak integration
Integration method:	Rectangular
Sensitivity:	1
Threshold:	1.000

Peaks
No.	Start(nm)	Apex(nm)	End(nm)	Height(Data)	Valley(nm)	Valley(Data)
1	370.0	374.4	375.4	4.687	375.4	3.525
2	375.4	378.0	381.8	5.158	381.8	3.640
3	381.8	385.4	387.2	5.042	387.2	3.969
4	387.2	388.2	391.4	4.983	391.4	3.849
5	391.4	398.6	399.2	6.727	399.2	5.588
6	399.2	401.4	402.2	8.143	402.2	6.845
7	402.2	491.8	492.6	2098	492.6	2079
8	492.6	494.4	495.8	2127	495.8	2105
9	495.8	496.8	497.6	2113	497.6	2101
10	497.6	498.6	500.2	2125	500.2	2105
11	500.2	501.0	651.6	2118	651.6	84.06
12	651.6	653.2	655.0	86.69	655.0	75.59
13	655.0	655.8	660.8	77.63	660.8	63.38
14	660.8	661.6	670.8	65.76	670.8	46.17
15	670.8	671.6	675.4	48.00	675.4	39.68
16	675.4	676.0	680.0	41.95	680.0	37.00

Data points
nm	Data
370.0	2.978
370.2	3.642
370.4	3.957
370.6	4.012
370.8	3.800
371.0	3.819
371.2	3.572
371.4	3.818
371.6	3.758
371.8	4.007
372.0	4.086
372.2	4.358
372.4	3.763
372.6	3.693
372.8	3.214
373.0	3.585
373.2	4.030
373.4	4.613
373.6	4.160
373.8	4.097
374.0	4.010
374.2	4.046
374.4	4.687
374.6	4.622
374.8	3.897
375.0	3.660
375.2	3.566
375.4	3.525
375.6	4.043
375.8	4.060
376.0	4.038
376.2	4.163
376.4	4.230
376.6	3.997
376.8	3.929
377.0	3.941
377.2	4.271
377.4	4.671
377.6	4.939
377.8	5.153
378.0	5.158
378.2	4.832
378.4	4.426
378.6	4.091
378.8	3.930
379.0	4.219
379.2	4.236
379.4	4.528
379.6	4.426
379.8	4.417
380.0	4.617
380.2	4.595
380.4	4.241
380.6	4.005
380.8	3.983
381.0	4.054
381.2	4.262
381.4	4.282
381.6	3.892
381.8	3.640
382.0	3.951
382.2	4.135
382.4	4.329
382.6	4.403
382.8	4.099
383.0	3.857
383.2	4.093
383.4	4.619
383.6	4.880
383.8	4.743
384.0	4.396
384.2	4.304
384.4	4.441
384.6	4.596
384.8	4.801
385.0	4.844
385.2	4.686
385.4	5.042
385.6	4.972
385.8	4.806
386.0	4.642
386.2	4.804
386.4	4.605
386.6	4.630
386.8	4.483
387.0	4.491
387.2	3.969
387.4	4.170
387.6	4.386
387.8	4.871
388.0	4.951
388.2	4.983
388.4	4.335
388.6	4.190
388.8	4.384
389.0	4.514
389.2	4.548
389.4	4.799
389.6	4.438
389.8	4.436
390.0	4.386
390.2	4.255
390.4	4.642
390.6	4.931
390.8	4.554
391.0	4.418
391.2	3.886
391.4	3.849
391.6	4.011
391.8	4.243
392.0	4.364
392.2	4.585
392.4	4.616
392.6	4.792
392.8	4.720
393.0	4.571
393.2	4.757
393.4	4.632
393.6	4.990
393.8	5.226
394.0	5.308
394.2	4.994
394.4	5.150
394.6	4.801
394.8	4.882
395.0	4.785
395.2	4.836
395.4	4.732
395.6	4.966
395.8	4.733
396.0	4.563
396.2	4.606
396.4	4.720
396.6	4.791
396.8	4.968
397.0	5.065
397.2	5.084
397.4	5.527
397.6	5.431
397.8	5.766
398.0	5.697
398.2	6.174
398.4	6.657
398.6	6.727
398.8	6.514
399.0	6.524
399.2	5.588
399.4	5.723
399.6	6.432
399.8	6.760
400.0	7.009
400.2	6.928
400.4	6.293
400.6	6.471
400.8	7.121
401.0	7.668
401.2	8.108
401.4	8.143
401.6	7.638
401.8	7.481
402.0	7.000
402.2	6.845
402.4	7.334
402.6	7.937
402.8	8.343
403.0	9.341
403.2	9.208
403.4	9.429
403.6	9.650
403.8	9.255
404.0	9.229
404.2	9.420
404.4	8.861
404.6	9.253
404.8	9.208
405.0	9.532
405.2	10.35
405.4	11.30
405.6	11.39
405.8	11.69
406.0	11.41
406.2	12.37
406.4	13.09
406.6	13.87
406.8	13.93
407.0	14.13
407.2	14.09
407.4	14.04
407.6	14.17
407.8	15.31
408.0	16.33
408.2	17.35
408.4	18.10
408.6	18.22
408.8	19.25
409.0	21.12
409.2	21.44
409.4	21.85
409.6	21.44
409.8	21.35
410.0	22.10
410.2	23.88
410.4	25.62
410.6	27.13
410.8	27.75
411.0	28.77
411.2	28.77
411.4	29.85
411.6	30.47
411.8	31.11
412.0	32.08
412.2	34.47
412.4	35.18
412.6	36.32
412.8	36.96
413.0	37.57
413.2	38.01
413.4	39.65
413.6	41.55
413.8	42.76
414.0	44.91
414.2	47.30
414.4	49.71
414.6	52.85
414.8	55.45
415.0	54.95
415.2	54.95
415.4	55.22
415.6	56.53
415.8	60.27
416.0	62.65
416.2	65.64
416.4	68.81
416.6	71.83
416.8	72.49
417.0	72.90
417.2	74.77
417.4	76.75
417.6	79.25
417.8	85.38
418.0	89.56
418.2	92.75
418.4	95.64
418.6	95.23
418.8	94.88
419.0	97.26
419.2	100.9
419.4	104.1
419.6	106.0
419.8	110.3
420.0	114.5
420.2	118.2
420.4	122.9
420.6	126.3
420.8	128.8
421.0	132.5
421.2	134.1
421.4	137.9
421.6	142.5
421.8	145.3
422.0	150.7
422.2	152.8
422.4	153.0
422.6	156.4
422.8	161.7
423.0	163.4
423.2	169.1
423.4	174.9
423.6	178.0
423.8	181.1
424.0	188.8
424.2	190.9
424.4	195.6
424.6	202.5
424.8	204.9
425.0	207.1
425.2	211.3
425.4	211.6
425.6	216.6
425.8	221.8
426.0	227.2
426.2	234.6
426.4	241.5
426.6	245.4
426.8	249.1
427.0	250.7
427.2	252.8
427.4	259.5
427.6	267.3
427.8	271.2
428.0	273.3
428.2	274.6
428.4	277.8
428.6	284.8
428.8	290.9
429.0	298.2
429.2	304.0
429.4	306.4
429.6	311.3
429.8	316.3
430.0	319.3
430.2	327.8
430.4	333.4
430.6	335.7
430.8	341.5
431.0	346.3
431.2	345.8
431.4	351.1
431.6	353.0
431.8	358.4
432.0	366.3
432.2	375.0
432.4	378.5
432.6	383.1
432.8	383.4
433.0	387.3
433.2	395.2
433.4	400.2
433.6	404.2
433.8	406.8
434.0	410.0
434.2	414.1
434.4	424.5
434.6	431.5
434.8	431.8
435.0	432.2
435.2	431.4
435.4	436.1
435.6	447.5
435.8	459.4
436.0	461.7
436.2	467.0
436.4	465.6
436.6	474.6
436.8	477.3
437.0	482.4
437.2	485.0
437.4	490.2
437.6	492.2
437.8	499.2
438.0	504.2
438.2	515.0
438.4	523.8
438.6	528.3
438.8	532.9
439.0	530.0
439.2	533.5
439.4	536.3
439.6	543.0
439.8	543.7
440.0	550.9
440.2	550.3
440.4	553.9
440.6	557.6
440.8	565.8
441.0	570.5
441.2	575.6
441.4	578.3
441.6	579.9
441.8	584.7
442.0	592.9
442.2	602.4
442.4	605.1
442.6	605.6
442.8	604.3
443.0	602.7
443.2	605.0
443.4	610.9
443.6	617.9
443.8	625.5
444.0	632.9
444.2	637.3
444.4	641.2
444.6	638.5
444.8	638.6
445.0	642.5
445.2	649.6
445.4	658.6
445.6	670.8
445.8	674.4
446.0	680.3
446.2	680.4
446.4	679.5
446.6	676.5
446.8	682.0
447.0	688.9
447.2	700.8
447.4	708.7
447.6	711.5
447.8	714.5
448.0	713.0
448.2	716.6
448.4	718.3
448.6	725.4
448.8	729.0
449.0	738.9
449.2	743.1
449.4	752.2
449.6	757.0
449.8	759.8
450.0	760.9
450.2	766.9
450.4	770.5
450.6	771.4
450.8	773.6
451.0	777.8
451.2	783.1
451.4	793.1
451.6	804.0
451.8	808.2
452.0	808.6
452.2	814.6
452.4	822.3
452.6	831.1
452.8	839.1
453.0	841.8
453.2	843.1
453.4	845.4
453.6	853.5
453.8	859.4
454.0	862.2
454.2	863.7
454.4	872.9
454.6	879.0
454.8	889.1
455.0	902.2
455.2	905.7
455.4	909.0
455.6	918.1
455.8	922.3
456.0	929.2
456.2	938.6
456.4	941.5
456.6	947.8
456.8	954.0
457.0	960.0
457.2	969.6
457.4	976.9
457.6	981.6
457.8	990.4
458.0	996.1
458.2	1002
458.4	1003
458.6	1007
458.8	1010
459.0	1023
459.2	1037
459.4	1046
459.6	1053
459.8	1065
460.0	1067
460.2	1076
460.4	1085
460.6	1092
460.8	1101
461.0	1106
461.2	1104
461.4	1112
461.6	1123
461.8	1133
462.0	1139
462.2	1146
462.4	1157
462.6	1170
462.8	1181
463.0	1185
463.2	1185
463.4	1194
463.6	1201
463.8	1211
464.0	1218
464.2	1230
464.4	1237
464.6	1243
464.8	1242
465.0	1245
465.2	1250
465.4	1263
465.6	1278
465.8	1295
466.0	1302
466.2	1307
466.4	1315
466.6	1319
466.8	1326
467.0	1341
467.2	1343
467.4	1350
467.6	1361
467.8	1371
468.0	1379
468.2	1389
468.4	1393
468.6	1403
468.8	1409
469.0	1424
469.2	1434
469.4	1441
469.6	1448
469.8	1451
470.0	1446
470.2	1454
470.4	1460
470.6	1469
470.8	1483
471.0	1497
471.2	1502
471.4	1508
471.6	1518
471.8	1524
472.0	1531
472.2	1539
472.4	1543
472.6	1543
472.8	1548
473.0	1558
473.2	1567
473.4	1580
473.6	1596
473.8	1605
474.0	1609
474.2	1616
474.4	1614
474.6	1624
474.8	1631
475.0	1652
475.2	1664
475.4	1662
475.6	1663
475.8	1667
476.0	1671
476.2	1686
476.4	1690
476.6	1693
476.8	1707
477.0	1720
477.2	1737
477.4	1744
477.6	1746
477.8	1750
478.0	1749
478.2	1748
478.4	1756
478.6	1772
478.8	1784
479.0	1795
479.2	1798
479.4	1793
479.6	1796
479.8	1811
480.0	1821
480.2	1825
480.4	1830
480.6	1830
480.8	1837
481.0	1844
481.2	1848
481.4	1841
481.6	1850
481.8	1860
482.0	1880
482.2	1892
482.4	1897
482.6	1886
482.8	1888
483.0	1890
483.2	1896
483.4	1905
483.6	1917
483.8	1924
484.0	1931
484.2	1940
484.4	1940
484.6	1945
484.8	1952
485.0	1954
485.2	1959
485.4	1964
485.6	1971
485.8	1981
486.0	1983
486.2	1982
486.4	1984
486.6	1988
486.8	1993
487.0	1998
487.2	2001
487.4	2007
487.6	2013
487.8	2027
488.0	2027
488.2	2026
488.4	2025
488.6	2021
488.8	2026
489.0	2042
489.2	2050
489.4	2050
489.6	2054
489.8	2057
490.0	2061
490.2	2071
490.4	2063
490.6	2054
490.8	2060
491.0	2067
491.2	2075
491.4	2088
491.6	2085
491.8	2098
492.0	2097
492.2	2090
492.4	2083
492.6	2079
492.8	2082
493.0	2098
493.2	2111
493.4	2113
493.6	2107
493.8	2103
494.0	2099
494.2	2107
494.4	2127
494.6	2125
494.8	2117
495.0	2117
495.2	2107
495.4	2108
495.6	2110
495.8	2105
496.0	2107
496.2	2112
496.4	2111
496.6	2112
496.8	2113
497.0	2112
497.2	2110
497.4	2108
497.6	2101
497.8	2104
498.0	2108
498.2	2113
498.4	2114
498.6	2125
498.8	2118
499.0	2120
499.2	2119
499.4	2116
499.6	2110
499.8	2116
500.0	2107
500.2	2105
500.4	2107
500.6	2109
500.8	2112
501.0	2118
501.2	2115
501.4	2110
501.6	2100
501.8	2101
502.0	2104
502.2	2103
502.4	2104
502.6	2103
502.8	2094
503.0	2092
503.2	2085
503.4	2081
503.6	2087
503.8	2084
504.0	2080
504.2	2069
504.4	2061
504.6	2067
504.8	2074
505.0	2076
505.2	2075
505.4	2071
505.6	2063
505.8	2066
506.0	2065
506.2	2071
506.4	2074
506.6	2070
506.8	2060
507.0	2060
507.2	2049
507.4	2055
507.6	2055
507.8	2045
508.0	2044
508.2	2047
508.4	2034
508.6	2044
508.8	2045
509.0	2043
509.2	2044
509.4	2037
509.6	2023
509.8	2018
510.0	2015
510.2	2009
510.4	2009
510.6	1997
510.8	1995
511.0	1991
511.2	1991
511.4	1987
511.6	1989
511.8	1987
512.0	1986
512.2	1987
512.4	1983
512.6	1984
512.8	1980
513.0	1981
513.2	1974
513.4	1974
513.6	1964
513.8	1969
514.0	1968
514.2	1954
514.4	1945
514.6	1939
514.8	1932
515.0	1932
515.2	1931
515.4	1920
515.6	1918
515.8	1906
516.0	1909
516.2	1905
516.4	1910
516.6	1908
516.8	1912
517.0	1904
517.2	1903
517.4	1891
517.6	1889
517.8	1879
518.0	1878
518.2	1871
518.4	1869
518.6	1861
518.8	1859
519.0	1857
519.2	1850
519.4	1841
519.6	1841
519.8	1839
520.0	1834
520.2	1833
520.4	1829
520.6	1824
520.8	1825
521.0	1827
521.2	1815
521.4	1813
521.6	1799
521.8	1795
522.0	1795
522.2	1793
522.4	1786
522.6	1786
522.8	1778
523.0	1782
523.2	1786
523.4	1787
523.6	1780
523.8	1774
524.0	1766
524.2	1762
524.4	1765
524.6	1764
524.8	1755
525.0	1749
525.2	1740
525.4	1724
525.6	1718
525.8	1719
526.0	1719
526.2	1726
526.4	1725
526.6	1723
526.8	1716
527.0	1708
527.2	1703
527.4	1705
527.6	1698
527.8	1701
528.0	1693
528.2	1683
528.4	1680
528.6	1683
528.8	1679
529.0	1682
529.2	1668
529.4	1664
529.6	1652
529.8	1640
530.0	1631
530.2	1636
530.4	1629
530.6	1631
530.8	1622
531.0	1619
531.2	1615
531.4	1617
531.6	1616
531.8	1618
532.0	1614
532.2	1610
532.4	1598
532.6	1585
532.8	1577
533.0	1577
533.2	1590
533.4	1588
533.6	1585
533.8	1576
534.0	1564
534.2	1554
534.4	1556
534.6	1549
534.8	1547
535.0	1540
535.2	1536
535.4	1537
535.6	1537
535.8	1539
536.0	1536
536.2	1527
536.4	1514
536.6	1507
536.8	1502
537.0	1505
537.2	1501
537.4	1494
537.6	1482
537.8	1472
538.0	1468
538.2	1472
538.4	1471
538.6	1464
538.8	1454
539.0	1448
539.2	1444
539.4	1443
539.6	1435
539.8	1430
540.0	1426
540.2	1426
540.4	1425
540.6	1426
540.8	1422
541.0	1415
541.2	1412
541.4	1405
541.6	1398
541.8	1390
542.0	1385
542.2	1378
542.4	1381
542.6	1380
542.8	1378
543.0	1375
543.2	1370
543.4	1366
543.6	1360
543.8	1345
544.0	1337
544.2	1335
544.4	1333
544.6	1328
544.8	1318
545.0	1307
545.2	1307
545.4	1312
545.6	1318
545.8	1317
546.0	1311
546.2	1301
546.4	1290
546.6	1283
546.8	1279
547.0	1279
547.2	1279
547.4	1277
547.6	1270
547.8	1267
548.0	1257
548.2	1249
548.4	1237
548.6	1233
548.8	1228
549.0	1221
549.2	1220
549.4	1223
549.6	1219
549.8	1222
550.0	1222
550.2	1207
550.4	1201
550.6	1196
550.8	1190
551.0	1191
551.2	1187
551.4	1174
551.6	1165
551.8	1164
552.0	1155
552.2	1155
552.4	1151
552.6	1146
552.8	1148
553.0	1145
553.2	1137
553.4	1138
553.6	1133
553.8	1130
554.0	1127
554.2	1120
554.4	1111
554.6	1104
554.8	1089
555.0	1083
555.2	1080
555.4	1088
555.6	1083
555.8	1078
556.0	1072
556.2	1068
556.4	1061
556.6	1058
556.8	1053
557.0	1052
557.2	1051
557.4	1049
557.6	1043
557.8	1035
558.0	1032
558.2	1030
558.4	1027
558.6	1022
558.8	1018
559.0	1010
559.2	1003
559.4	994.8
559.6	987.9
559.8	981.7
560.0	988.0
560.2	991.8
560.4	993.3
560.6	990.8
560.8	984.5
561.0	974.7
561.2	968.6
561.4	958.2
561.6	944.0
561.8	937.7
562.0	937.0
562.2	935.4
562.4	937.6
562.6	937.0
562.8	932.7
563.0	933.0
563.2	929.8
563.4	921.3
563.6	917.5
563.8	914.4
564.0	912.5
564.2	911.6
564.4	902.6
564.6	891.9
564.8	886.9
565.0	884.1
565.2	880.8
565.4	880.6
565.6	878.0
565.8	874.2
566.0	867.7
566.2	859.3
566.4	851.6
566.6	850.4
566.8	848.6
567.0	844.8
567.2	842.6
567.4	840.4
567.6	839.7
567.8	836.1
568.0	830.5
568.2	821.9
568.4	823.6
568.6	823.2
568.8	822.9
569.0	816.0
569.2	809.5
569.4	805.4
569.6	803.1
569.8	800.7
570.0	797.3
570.2	793.3
570.4	790.6
570.6	791.6
570.8	787.3
571.0	785.4
571.2	775.7
571.4	770.1
571.6	764.9
571.8	761.4
572.0	756.0
572.2	759.4
572.4	760.2
572.6	757.3
572.8	754.0
573.0	750.5
573.2	743.0
573.4	737.6
573.6	735.4
573.8	729.0
574.0	729.4
574.2	727.3
574.4	722.3
574.6	715.8
574.8	713.8
575.0	712.2
575.2	709.9
575.4	704.7
575.6	703.5
575.8	697.9
576.0	693.8
576.2	690.4
576.4	692.6
576.6	697.4
576.8	697.2
577.0	690.2
577.2	680.2
577.4	671.5
577.6	672.8
577.8	675.6
578.0	675.3
578.2	676.1
578.4	668.2
578.6	663.1
578.8	654.4
579.0	647.9
579.2	641.4
579.4	645.2
579.6	645.5
579.8	648.8
580.0	643.6
580.2	635.8
580.4	624.1
580.6	623.0
580.8	621.7
581.0	621.4
581.2	619.5
581.4	618.4
581.6	615.8
581.8	613.5
582.0	607.5
582.2	602.5
582.4	599.9
582.6	596.4
582.8	594.8
583.0	595.7
583.2	592.2
583.4	588.9
583.6	583.7
583.8	577.3
584.0	574.0
584.2	573.9
584.4	569.9
584.6	567.3
584.8	568.0
585.0	566.9
585.2	570.5
585.4	569.7
585.6	564.0
585.8	557.3
586.0	558.6
586.2	549.1
586.4	548.6
586.6	543.4
586.8	540.0
587.0	535.6
587.2	537.8
587.4	532.5
587.6	530.5
587.8	532.8
588.0	531.4
588.2	527.2
588.4	524.8
588.6	517.9
588.8	512.3
589.0	515.8
589.2	512.6
589.4	506.9
589.6	502.6
589.8	500.5
590.0	503.7
590.2	507.8
590.4	501.7
590.6	494.2
590.8	488.3
591.0	486.6
591.2	485.3
591.4	485.3
591.6	479.3
591.8	480.4
592.0	480.0
592.2	481.8
592.4	476.8
592.6	476.3
592.8	468.7
593.0	466.7
593.2	462.1
593.4	462.9
593.6	456.8
593.8	456.0
594.0	449.8
594.2	450.7
594.4	449.4
594.6	449.5
594.8	443.3
595.0	442.4
595.2	438.0
595.4	436.9
595.6	433.2
595.8	434.3
596.0	428.1
596.2	429.1
596.4	424.6
596.6	422.9
596.8	420.6
597.0	419.6
597.2	412.4
597.4	413.5
597.6	411.7
597.8	410.2
598.0	410.7
598.2	409.7
598.4	407.6
598.6	404.0
598.8	397.8
599.0	391.9
599.2	394.0
599.4	396.4
599.6	393.9
599.8	388.7
600.0	385.1
600.2	385.6
600.4	386.7
600.6	389.8
600.8	385.4
601.0	382.0
601.2	378.3
601.4	372.1
601.6	367.1
601.8	368.0
602.0	367.0
602.2	367.6
602.4	368.3
602.6	363.9
602.8	359.4
603.0	355.9
603.2	352.9
603.4	353.0
603.6	354.1
603.8	351.2
604.0	345.5
604.2	343.1
604.4	344.0
604.6	344.6
604.8	344.9
605.0	340.5
605.2	337.4
605.4	337.9
605.6	339.5
605.8	338.4
606.0	336.0
606.2	330.4
606.4	327.8
606.6	325.0
606.8	320.1
607.0	318.6
607.2	315.3
607.4	317.3
607.6	320.1
607.8	319.5
608.0	314.6
608.2	313.2
608.4	307.6
608.6	306.1
608.8	302.1
609.0	299.2
609.2	298.0
609.4	297.4
609.6	295.8
609.8	296.8
610.0	293.7
610.2	291.7
610.4	292.1
610.6	293.7
610.8	290.6
611.0	291.8
611.2	288.5
611.4	282.2
611.6	279.9
611.8	281.9
612.0	279.4
612.2	280.9
612.4	280.5
612.6	275.7
612.8	272.0
613.0	269.9
613.2	266.9
613.4	267.5
613.6	269.0
613.8	266.2
614.0	263.5
614.2	261.8
614.4	258.1
614.6	257.6
614.8	258.7
615.0	260.8
615.2	262.5
615.4	262.1
615.6	260.4
615.8	255.9
616.0	251.3
616.2	248.5
616.4	245.2
616.6	242.2
616.8	243.0
617.0	243.2
617.2	243.8
617.4	246.3
617.6	244.1
617.8	240.6
618.0	236.6
618.2	233.1
618.4	231.5
618.6	232.1
618.8	229.6
619.0	228.0
619.2	227.1
619.4	227.7
619.6	227.7
619.8	228.3
620.0	226.6
620.2	226.8
620.4	226.2
620.6	224.4
620.8	221.9
621.0	219.1
621.2	215.4
621.4	212.8
621.6	211.0
621.8	210.4
622.0	210.6
622.2	211.7
622.4	209.8
622.6	208.5
622.8	206.3
623.0	206.8
623.2	206.3
623.4	207.0
623.6	204.2
623.8	202.2
624.0	198.7
624.2	198.6
624.4	195.8
624.6	197.4
624.8	197.2
625.0	194.3
625.2	194.2
625.4	193.0
625.6	188.5
625.8	188.0
626.0	187.0
626.2	185.1
626.4	184.2
626.6	183.7
626.8	181.9
627.0	180.6
627.2	181.6
627.4	181.9
627.6	179.8
627.8	179.7
628.0	178.3
628.2	177.6
628.4	174.4
628.6	174.6
628.8	172.9
629.0	171.1
629.2	169.7
629.4	169.7
629.6	168.1
629.8	171.2
630.0	170.4
630.2	169.0
630.4	167.5
630.6	165.0
630.8	162.2
631.0	159.9
631.2	156.2
631.4	157.3
631.6	158.1
631.8	158.4
632.0	160.7
632.2	158.8
632.4	156.9
632.6	156.7
632.8	152.9
633.0	149.8
633.2	151.1
633.4	151.0
633.6	151.2
633.8	152.0
634.0	149.8
634.2	149.3
634.4	148.1
634.6	147.3
634.8	145.5
635.0	143.6
635.2	142.9
635.4	142.8
635.6	141.7
635.8	140.2
636.0	139.2
636.2	139.0
636.4	139.2
636.6	140.2
636.8	141.0
637.0	138.3
637.2	137.0
637.4	135.8
637.6	132.8
637.8	130.6
638.0	128.7
638.2	127.5
638.4	128.9
638.6	129.6
638.8	130.7
639.0	129.2
639.2	127.4
639.4	126.3
639.6	124.3
639.8	120.8
640.0	120.1
640.2	119.7
640.4	121.7
640.6	123.6
640.8	123.8
641.0	123.7
641.2	120.4
641.4	118.3
641.6	117.6
641.8	117.5
642.0	119.2
642.2	120.9
642.4	118.4
642.6	116.8
642.8	113.8
643.0	113.4
643.2	112.7
643.4	109.6
643.6	106.1
643.8	104.9
644.0	104.6
644.2	108.5
644.4	110.9
644.6	109.5
644.8	106.6
645.0	105.9
645.2	104.5
645.4	104.7
645.6	104.5
645.8	102.7
646.0	101.7
646.2	103.0
646.4	101.5
646.6	101.4
646.8	101.1
647.0	99.82
647.2	99.57
647.4	99.40
647.6	97.28
647.8	96.44
648.0	96.00
648.2	95.08
648.4	93.88
648.6	93.07
648.8	93.92
649.0	93.37
649.2	94.24
649.4	93.77
649.6	90.16
649.8	88.01
650.0	87.76
650.2	88.05
650.4	89.33
650.6	90.92
650.8	89.86
651.0	88.44
651.2	86.52
651.4	85.01
651.6	84.06
651.8	84.96
652.0	85.94
652.2	86.25
652.4	85.48
652.6	84.78
652.8	85.62
653.0	85.43
653.2	86.69
653.4	86.04
653.6	83.41
653.8	81.44
654.0	80.29
654.2	76.84
654.4	76.82
654.6	76.61
654.8	75.70
655.0	75.59
655.2	76.12
655.4	76.31
655.6	77.05
655.8	77.63
656.0	76.23
656.2	73.85
656.4	72.51
656.6	72.81
656.8	72.40
657.0	72.99
657.2	73.75
657.4	72.78
657.6	71.23
657.8	68.86
658.0	68.38
658.2	69.36
658.4	70.60
658.6	71.17
658.8	70.38
659.0	68.44
659.2	68.85
659.4	68.09
659.6	66.13
659.8	65.74
660.0	64.83
660.2	63.67
660.4	64.70
660.6	64.46
660.8	63.38
661.0	65.41
661.2	65.33
661.4	65.03
661.6	65.76
661.8	64.38
662.0	62.17
662.2	62.25
662.4	60.58
662.6	60.70
662.8	60.74
663.0	59.79
663.2	60.17
663.4	60.55
663.6	60.39
663.8	60.57
664.0	58.89
664.2	57.69
664.4	57.90
664.6	56.69
664.8	56.43
665.0	55.87
665.2	55.13
665.4	55.55
665.6	55.62
665.8	54.88
666.0	55.78
666.2	55.43
666.4	56.66
666.6	56.17
666.8	55.13
667.0	53.26
667.2	52.66
667.4	51.35
667.6	51.24
667.8	51.15
668.0	52.63
668.2	51.84
668.4	51.20
668.6	50.57
668.8	49.58
669.0	50.32
669.2	51.30
669.4	49.60
669.6	47.32
669.8	47.05
670.0	46.22
670.2	46.70
670.4	47.49
670.6	47.37
670.8	46.17
671.0	46.59
671.2	47.69
671.4	47.88
671.6	48.00
671.8	47.61
672.0	45.38
672.2	45.36
672.4	45.77
672.6	46.58
672.8	46.73
673.0	45.40
673.2	43.81
673.4	43.18
673.6	41.87
673.8	42.64
674.0	42.95
674.2	42.59
674.4	43.63
674.6	42.62
674.8	42.23
675.0	40.53
675.2	40.11
675.4	39.68
675.6	40.98
675.8	41.39
676.0	41.95
676.2	40.98
676.4	41.68
676.6	40.22
676.8	39.04
677.0	39.02
677.2	38.94
677.4	38.39
677.6	38.46
677.8	37.91
678.0	37.39
678.2	37.69
678.4	38.28
678.6	38.07
678.8	37.21
679.0	36.47
679.2	35.77
679.4	35.47
679.6	36.18
679.8	36.87
680.0	37.00

