Sample:	'20211010A(EM)
File name:	B-CDS 6 600uM.FDS
Run date:	'14:20:15, 06/08/2023
Operator:	Administrator
Comment:	'

Instrument
Model:	F-4700 FL Spectrophotometer
Serial number:	2019-001
ROM Version:	5J24010 00

Instrument parameters
Measurement type:	Wavelength scan
Scan mode:	Emission
Data mode:	Fluorescence
EX WL:	350.0 nm
EM  Start WL:	370.0 nm
EM  End WL:	680.0 nm
Scan speed:	1200 nm/min
Delay:	0.0 s
EX Slit:	10.0 nm
EM Slit:	10.0 nm
PMT Voltage:	550 V
Response:	0.002 s
Corrected spectra:	Off
Shutter control:	On

Processing performed
Savitsky-Golay smoothed
Smoothing order:	3
Number of points:	7
Number of times:	1

Peak integration
Integration method:	Rectangular
Sensitivity:	1
Threshold:	1.000

Peaks
No.	Start(nm)	Apex(nm)	End(nm)	Height(Data)	Valley(nm)	Valley(Data)
1	370.0	375.6	377.4	10.19	377.4	7.877
2	377.4	380.6	382.6	10.99	382.6	9.092
3	382.6	479.6	481.0	5556	481.0	5522
4	481.0	483.8	484.4	5587	484.4	5570
5	484.4	485.4	486.2	5601	486.2	5552
6	486.2	487.6	635.0	5597	635.0	200.3
7	635.0	635.8	656.2	207.0	656.2	104.7
8	656.2	656.6	665.0	109.5	665.0	78.89
9	665.0	665.6	680.0	81.84	680.0	46.19

Data points
nm	Data
370.0	6.815
370.2	8.177
370.4	8.752
370.6	8.803
370.8	8.964
371.0	8.130
371.2	8.008
371.4	8.056
371.6	8.170
371.8	8.372
372.0	8.289
372.2	8.632
372.4	8.916
372.6	8.796
372.8	8.490
373.0	8.351
373.2	7.739
373.4	8.289
373.6	8.664
373.8	9.106
374.0	9.287
374.2	9.251
374.4	9.137
374.6	9.051
374.8	9.195
375.0	9.239
375.2	9.694
375.4	9.897
375.6	10.19
375.8	9.925
376.0	9.716
376.2	8.975
376.4	9.607
376.6	9.963
376.8	9.749
377.0	9.023
377.2	8.271
377.4	7.877
377.6	8.751
377.8	9.409
378.0	9.352
378.2	9.492
378.4	9.232
378.6	9.552
378.8	9.903
379.0	9.747
379.2	9.234
379.4	9.756
379.6	9.322
379.8	9.484
380.0	10.35
380.2	10.70
380.4	10.54
380.6	10.99
380.8	10.20
381.0	9.712
381.2	9.911
381.4	9.711
381.6	9.266
381.8	9.927
382.0	9.646
382.2	9.408
382.4	9.325
382.6	9.092
382.8	9.478
383.0	10.17
383.2	10.21
383.4	10.37
383.6	11.12
383.8	11.74
384.0	12.02
384.2	11.59
384.4	11.70
384.6	11.51
384.8	12.37
385.0	12.86
385.2	12.93
385.4	12.15
385.6	11.89
385.8	11.88
386.0	12.74
386.2	13.55
386.4	13.89
386.6	13.12
386.8	12.89
387.0	12.86
387.2	13.02
387.4	13.15
387.6	13.43
387.8	14.33
388.0	15.38
388.2	15.72
388.4	15.61
388.6	14.65
388.8	14.70
389.0	15.17
389.2	15.65
389.4	16.24
389.6	16.37
389.8	16.11
390.0	16.39
390.2	17.05
390.4	17.79
390.6	18.27
390.8	17.59
391.0	17.89
391.2	17.90
391.4	18.23
391.6	19.45
391.8	19.75
392.0	19.71
392.2	21.83
392.4	23.13
392.6	23.97
392.8	24.98
393.0	24.72
393.2	24.17
393.4	25.47
393.6	26.44
393.8	27.49
394.0	28.07
394.2	29.11
394.4	29.12
394.6	29.43
394.8	30.15
395.0	31.13
395.2	31.67
395.4	32.94
395.6	33.45
395.8	34.59
396.0	35.90
396.2	37.50
396.4	39.00
396.6	40.90
396.8	41.48
397.0	43.54
397.2	44.63
397.4	46.87
397.6	49.01
397.8	50.59
398.0	51.37
398.2	52.90
398.4	55.47
398.6	59.03
398.8	61.36
399.0	63.10
399.2	65.28
399.4	66.23
399.6	67.48
399.8	69.91
400.0	71.60
400.2	73.57
400.4	77.07
400.6	79.54
400.8	81.50
401.0	85.21
401.2	88.46
401.4	91.32
401.6	95.43
401.8	98.11
402.0	102.2
402.2	104.3
402.4	106.0
402.6	107.7
402.8	110.4
403.0	115.0
403.2	122.1
403.4	126.5
403.6	131.6
403.8	135.8
404.0	140.4
404.2	143.4
404.4	147.6
404.6	151.2
404.8	155.3
405.0	162.7
405.2	168.0
405.4	170.8
405.6	177.2
405.8	183.8
406.0	188.0
406.2	197.2
406.4	203.1
406.6	208.5
406.8	217.2
407.0	226.6
407.2	231.3
407.4	237.6
407.6	242.8
407.8	247.4
408.0	256.7
408.2	266.2
408.4	273.5
408.6	278.9
408.8	287.8
409.0	296.2
409.2	305.0
409.4	314.0
409.6	323.2
409.8	330.7
410.0	341.9
410.2	353.7
410.4	362.9
410.6	370.8
410.8	380.7
411.0	389.0
411.2	400.7
411.4	416.7
411.6	431.2
411.8	440.9
412.0	451.1
412.2	461.7
412.4	475.7
412.6	490.5
412.8	502.1
413.0	513.6
413.2	521.2
413.4	535.6
413.6	548.1
413.8	562.1
414.0	572.2
414.2	588.3
414.4	596.5
414.6	613.0
414.8	628.3
415.0	646.7
415.2	664.2
415.4	681.3
415.6	694.2
415.8	712.8
416.0	727.8
416.2	743.4
416.4	759.7
416.6	776.5
416.8	792.5
417.0	806.7
417.2	816.4
417.4	832.4
417.6	852.1
417.8	877.6
418.0	899.6
418.2	914.3
418.4	929.3
418.6	943.0
418.8	957.0
419.0	977.3
419.2	999.1
419.4	1024
419.6	1049
419.8	1066
420.0	1083
420.2	1098
420.4	1119
420.6	1139
420.8	1164
421.0	1188
421.2	1211
421.4	1226
421.6	1241
421.8	1256
422.0	1276
422.2	1298
422.4	1323
422.6	1345
422.8	1365
423.0	1392
423.2	1412
423.4	1432
423.6	1455
423.8	1478
424.0	1498
424.2	1517
424.4	1534
424.6	1556
424.8	1583
425.0	1612
425.2	1637
425.4	1656
425.6	1672
425.8	1688
426.0	1710
426.2	1740
426.4	1764
426.6	1784
426.8	1798
427.0	1816
427.2	1844
427.4	1881
427.6	1910
427.8	1935
428.0	1944
428.2	1955
428.4	1969
428.6	1991
428.8	2017
429.0	2046
429.2	2070
429.4	2086
429.6	2109
429.8	2133
430.0	2159
430.2	2180
430.4	2205
430.6	2226
430.8	2245
431.0	2262
431.2	2278
431.4	2296
431.6	2323
431.8	2353
432.0	2388
432.2	2425
432.4	2439
432.6	2455
432.8	2466
433.0	2482
433.2	2505
433.4	2521
433.6	2526
433.8	2542
434.0	2562
434.2	2589
434.4	2618
434.6	2638
434.8	2664
435.0	2701
435.2	2717
435.4	2735
435.6	2753
435.8	2765
436.0	2781
436.2	2799
436.4	2809
436.6	2831
436.8	2865
437.0	2892
437.2	2903
437.4	2911
437.6	2923
437.8	2946
438.0	2973
438.2	2993
438.4	3001
438.6	3020
438.8	3033
439.0	3056
439.2	3068
439.4	3090
439.6	3105
439.8	3130
440.0	3151
440.2	3172
440.4	3190
440.6	3215
440.8	3227
441.0	3245
441.2	3260
441.4	3281
441.6	3292
441.8	3298
442.0	3297
442.2	3305
442.4	3319
442.6	3353
442.8	3381
443.0	3401
443.2	3414
443.4	3423
443.6	3439
443.8	3456
444.0	3474
444.2	3492
444.4	3497
444.6	3507
444.8	3520
445.0	3541
445.2	3565
445.4	3592
445.6	3607
445.8	3618
446.0	3622
446.2	3634
446.4	3639
446.6	3654
446.8	3667
447.0	3679
447.2	3696
447.4	3713
447.6	3717
447.8	3737
448.0	3746
448.2	3763
448.4	3787
448.6	3807
448.8	3817
449.0	3837
449.2	3847
449.4	3871
449.6	3892
449.8	3906
450.0	3911
450.2	3921
450.4	3927
450.6	3946
450.8	3954
451.0	3957
451.2	3972
451.4	3987
451.6	4009
451.8	4021
452.0	4027
452.2	4039
452.4	4063
452.6	4092
452.8	4119
453.0	4130
453.2	4142
453.4	4154
453.6	4147
453.8	4164
454.0	4176
454.2	4189
454.4	4205
454.6	4231
454.8	4245
455.0	4273
455.2	4286
455.4	4282
455.6	4276
455.8	4293
456.0	4311
456.2	4341
456.4	4369
456.6	4377
456.8	4379
457.0	4387
457.2	4393
457.4	4403
457.6	4417
457.8	4431
458.0	4446
458.2	4461
458.4	4481
458.6	4494
458.8	4508
459.0	4529
459.2	4548
459.4	4570
459.6	4597
459.8	4613
460.0	4624
460.2	4640
460.4	4642
460.6	4654
460.8	4674
461.0	4679
461.2	4675
461.4	4688
461.6	4702
461.8	4711
462.0	4729
462.2	4750
462.4	4749
462.6	4762
462.8	4782
463.0	4797
463.2	4818
463.4	4845
463.6	4858
463.8	4874
464.0	4886
464.2	4899
464.4	4916
464.6	4919
464.8	4929
465.0	4949
465.2	4960
465.4	4968
465.6	4983
465.8	4986
466.0	4987
466.2	4997
466.4	5004
466.6	4999
466.8	5015
467.0	5034
467.2	5036
467.4	5056
467.6	5075
467.8	5078
468.0	5095
468.2	5106
468.4	5104
468.6	5114
468.8	5127
469.0	5148
469.2	5168
469.4	5191
469.6	5211
469.8	5218
470.0	5220
470.2	5234
470.4	5231
470.6	5229
470.8	5234
471.0	5234
471.2	5239
471.4	5264
471.6	5272
471.8	5289
472.0	5300
472.2	5304
472.4	5319
472.6	5331
472.8	5320
473.0	5318
473.2	5318
473.4	5322
473.6	5339
473.8	5346
474.0	5349
474.2	5363
474.4	5386
474.6	5400
474.8	5395
475.0	5379
475.2	5376
475.4	5390
475.6	5404
475.8	5420
476.0	5421
476.2	5430
476.4	5440
476.6	5442
476.8	5450
477.0	5473
477.2	5471
477.4	5478
477.6	5474
477.8	5464
478.0	5468
478.2	5494
478.4	5498
478.6	5492
478.8	5499
479.0	5509
479.2	5521
479.4	5545
479.6	5556
479.8	5542
480.0	5541
480.2	5540
480.4	5532
480.6	5530
480.8	5529
481.0	5522
481.2	5527
481.4	5532
481.6	5542
481.8	5553
482.0	5558
482.2	5553
482.4	5554
482.6	5551
482.8	5557
483.0	5575
483.2	5585
483.4	5585
483.6	5581
483.8	5587
484.0	5576
484.2	5578
484.4	5570
484.6	5573
484.8	5573
485.0	5583
485.2	5592
485.4	5601
485.6	5590
485.8	5586
486.0	5571
486.2	5552
486.4	5558
486.6	5555
486.8	5557
487.0	5573
487.2	5586
487.4	5597
487.6	5597
487.8	5580
488.0	5576
488.2	5577
488.4	5575
488.6	5569
488.8	5560
489.0	5541
489.2	5538
489.4	5533
489.6	5548
489.8	5542
490.0	5537
490.2	5522
490.4	5524
490.6	5519
490.8	5514
491.0	5517
491.2	5512
491.4	5505
491.6	5513
491.8	5515
492.0	5501
492.2	5505
492.4	5491
492.6	5479
492.8	5485
493.0	5497
493.2	5497
493.4	5495
493.6	5474
493.8	5448
494.0	5440
494.2	5420
494.4	5410
494.6	5416
494.8	5412
495.0	5414
495.2	5412
495.4	5404
495.6	5395
495.8	5372
496.0	5347
496.2	5352
496.4	5339
496.6	5338
496.8	5327
497.0	5313
497.2	5305
497.4	5308
497.6	5304
497.8	5278
498.0	5279
498.2	5282
498.4	5283
498.6	5277
498.8	5272
499.0	5254
499.2	5245
499.4	5222
499.6	5203
499.8	5179
500.0	5168
500.2	5162
500.4	5149
500.6	5135
500.8	5120
501.0	5120
501.2	5116
501.4	5101
501.6	5083
501.8	5061
502.0	5042
502.2	5048
502.4	5037
502.6	5032
502.8	5012
503.0	4996
503.2	4997
503.4	4990
503.6	4985
503.8	4980
504.0	4955
504.2	4926
504.4	4916
504.6	4909
504.8	4907
505.0	4901
505.2	4884
505.4	4855
505.6	4829
505.8	4834
506.0	4821
506.2	4811
506.4	4779
506.6	4756
506.8	4733
507.0	4743
507.2	4745
507.4	4748
507.6	4734
507.8	4724
508.0	4702
508.2	4676
508.4	4661
508.6	4665
508.8	4652
509.0	4645
509.2	4627
509.4	4601
509.6	4594
509.8	4582
510.0	4557
510.2	4539
510.4	4531
510.6	4521
510.8	4507
511.0	4475
511.2	4452
511.4	4425
511.6	4428
511.8	4422
512.0	4411
512.2	4398
512.4	4394
512.6	4377
512.8	4375
513.0	4352
513.2	4328
513.4	4307
513.6	4299
513.8	4289
514.0	4293
514.2	4272
514.4	4256
514.6	4242
514.8	4220
515.0	4210
515.2	4204
515.4	4185
515.6	4171
515.8	4170
516.0	4155
516.2	4138
516.4	4122
516.6	4104
516.8	4094
517.0	4088
517.2	4080
517.4	4064
517.6	4051
517.8	4028
518.0	4007
518.2	3985
518.4	3971
518.6	3965
518.8	3948
519.0	3935
519.2	3922
519.4	3912
519.6	3893
519.8	3882
520.0	3855
520.2	3844
520.4	3840
520.6	3830
520.8	3815
521.0	3799
521.2	3782
521.4	3759
521.6	3744
521.8	3731
522.0	3728
522.2	3716
522.4	3705
522.6	3686
522.8	3674
523.0	3665
523.2	3662
523.4	3656
523.6	3638
523.8	3629
524.0	3618
524.2	3594
524.4	3575
524.6	3566
524.8	3555
525.0	3553
525.2	3544
525.4	3525
525.6	3511
525.8	3491
526.0	3473
526.2	3462
526.4	3454
526.6	3448
526.8	3447
527.0	3428
527.2	3408
527.4	3401
527.6	3391
527.8	3379
528.0	3364
528.2	3347
528.4	3326
528.6	3314
528.8	3300
529.0	3290
529.2	3283
529.4	3278
529.6	3261
529.8	3249
530.0	3232
530.2	3216
530.4	3211
530.6	3195
530.8	3186
531.0	3182
531.2	3181
531.4	3172
531.6	3161
531.8	3143
532.0	3129
532.2	3112
532.4	3106
532.6	3089
532.8	3074
533.0	3055
533.2	3036
533.4	3031
533.6	3025
533.8	3011
534.0	3007
534.2	2989
534.4	2978
534.6	2977
534.8	2976
535.0	2964
535.2	2954
535.4	2928
535.6	2901
535.8	2882
536.0	2875
536.2	2863
536.4	2865
536.6	2853
536.8	2839
537.0	2835
537.2	2817
537.4	2803
537.6	2792
537.8	2772
538.0	2765
538.2	2763
538.4	2745
538.6	2736
538.8	2725
539.0	2707
539.2	2693
539.4	2686
539.6	2661
539.8	2647
540.0	2641
540.2	2631
540.4	2629
540.6	2618
540.8	2603
541.0	2585
541.2	2577
541.4	2574
541.6	2581
541.8	2570
542.0	2557
542.2	2534
542.4	2515
542.6	2498
542.8	2490
543.0	2478
543.2	2464
543.4	2453
543.6	2440
543.8	2437
544.0	2428
544.2	2420
544.4	2418
544.6	2406
544.8	2385
545.0	2369
545.2	2341
545.4	2327
545.6	2328
545.8	2323
546.0	2314
546.2	2309
546.4	2297
546.6	2292
546.8	2280
547.0	2270
547.2	2253
547.4	2236
547.6	2224
547.8	2214
548.0	2207
548.2	2213
548.4	2198
548.6	2181
548.8	2158
549.0	2140
549.2	2129
549.4	2125
549.6	2114
549.8	2115
550.0	2111
550.2	2099
550.4	2084
550.6	2056
550.8	2036
551.0	2033
551.2	2044
551.4	2041
551.6	2037
551.8	2019
552.0	2002
552.2	1992
552.4	1993
552.6	1989
552.8	1984
553.0	1978
553.2	1969
553.4	1957
553.6	1945
553.8	1927
554.0	1905
554.2	1892
554.4	1881
554.6	1871
554.8	1870
555.0	1858
555.2	1841
555.4	1836
555.6	1834
555.8	1827
556.0	1824
556.2	1815
556.4	1805
556.6	1795
556.8	1781
557.0	1768
557.2	1757
557.4	1749
557.6	1750
557.8	1746
558.0	1735
558.2	1728
558.4	1728
558.6	1714
558.8	1702
559.0	1692
559.2	1680
559.4	1671
559.6	1667
559.8	1655
560.0	1644
560.2	1629
560.4	1621
560.6	1609
560.8	1601
561.0	1604
561.2	1600
561.4	1592
561.6	1585
561.8	1571
562.0	1564
562.2	1556
562.4	1539
562.6	1529
562.8	1528
563.0	1526
563.2	1526
563.4	1519
563.6	1501
563.8	1487
564.0	1493
564.2	1487
564.4	1477
564.6	1474
564.8	1456
565.0	1438
565.2	1440
565.4	1434
565.6	1433
565.8	1433
566.0	1425
566.2	1411
566.4	1403
566.6	1393
566.8	1389
567.0	1378
567.2	1375
567.4	1372
567.6	1361
567.8	1356
568.0	1358
568.2	1348
568.4	1343
568.6	1337
568.8	1324
569.0	1312
569.2	1307
569.4	1290
569.6	1287
569.8	1284
570.0	1277
570.2	1272
570.4	1264
570.6	1250
570.8	1246
571.0	1244
571.2	1240
571.4	1236
571.6	1224
571.8	1211
572.0	1204
572.2	1201
572.4	1202
572.6	1204
572.8	1198
573.0	1190
573.2	1181
573.4	1173
573.6	1164
573.8	1156
574.0	1150
574.2	1147
574.4	1141
574.6	1143
574.8	1136
575.0	1129
575.2	1125
575.4	1120
575.6	1110
575.8	1107
576.0	1097
576.2	1094
576.4	1087
576.6	1082
576.8	1069
577.0	1066
577.2	1060
577.4	1051
577.6	1043
577.8	1042
578.0	1038
578.2	1039
578.4	1037
578.6	1035
578.8	1027
579.0	1021
579.2	1011
579.4	997.8
579.6	991.4
579.8	991.3
580.0	986.4
580.2	985.8
580.4	981.7
580.6	975.4
580.8	975.2
581.0	971.4
581.2	965.3
581.4	959.8
581.6	953.1
581.8	944.3
582.0	938.5
582.2	931.8
582.4	926.8
582.6	921.0
582.8	923.2
583.0	918.4
583.2	917.3
583.4	913.7
583.6	914.8
583.8	904.6
584.0	903.5
584.2	891.6
584.4	885.3
584.6	877.6
584.8	874.2
585.0	866.0
585.2	867.2
585.4	863.4
585.6	861.0
585.8	851.4
586.0	845.4
586.2	838.4
586.4	838.0
586.6	835.3
586.8	826.8
587.0	818.0
587.2	816.8
587.4	812.5
587.6	814.2
587.8	817.0
588.0	815.0
588.2	812.3
588.4	803.7
588.6	793.1
588.8	781.7
589.0	774.3
589.2	772.5
589.4	770.3
589.6	764.6
589.8	761.9
590.0	755.5
590.2	753.4
590.4	750.2
590.6	750.6
590.8	749.6
591.0	745.5
591.2	739.5
591.4	735.9
591.6	731.4
591.8	724.0
592.0	721.5
592.2	715.0
592.4	712.0
592.6	705.4
592.8	699.2
593.0	693.7
593.2	692.3
593.4	688.7
593.6	692.8
593.8	688.5
594.0	686.9
594.2	683.8
594.4	679.3
594.6	677.9
594.8	672.7
595.0	669.1
595.2	664.8
595.4	656.1
595.6	651.3
595.8	648.2
596.0	641.7
596.2	640.1
596.4	637.7
596.6	634.1
596.8	631.7
597.0	628.8
597.2	627.3
597.4	625.5
597.6	625.9
597.8	624.9
598.0	623.8
598.2	618.3
598.4	609.5
598.6	599.2
598.8	594.4
599.0	594.5
599.2	594.5
599.4	593.5
599.6	590.9
599.8	581.4
600.0	577.2
600.2	575.5
600.4	577.7
600.6	576.9
600.8	574.2
601.0	563.7
601.2	556.3
601.4	553.9
601.6	553.1
601.8	547.9
602.0	544.2
602.2	539.6
602.4	538.5
602.6	539.7
602.8	538.1
603.0	536.0
603.2	532.0
603.4	529.0
603.6	527.2
603.8	521.0
604.0	517.2
604.2	511.8
604.4	503.7
604.6	503.6
604.8	506.0
605.0	504.2
605.2	503.5
605.4	499.3
605.6	489.9
605.8	487.8
606.0	486.2
606.2	484.5
606.4	487.1
606.6	487.9
606.8	481.6
607.0	479.4
607.2	474.4
607.4	469.3
607.6	467.5
607.8	466.6
608.0	462.5
608.2	459.3
608.4	456.2
608.6	448.5
608.8	442.5
609.0	441.5
609.2	443.9
609.4	439.8
609.6	440.2
609.8	438.3
610.0	434.0
610.2	432.3
610.4	436.5
610.6	437.4
610.8	437.6
611.0	438.9
611.2	431.4
611.4	423.3
611.6	418.9
611.8	414.9
612.0	407.4
612.2	407.1
612.4	403.8
612.6	402.4
612.8	403.4
613.0	398.3
613.2	396.6
613.4	398.1
613.6	396.7
613.8	391.5
614.0	388.9
614.2	382.0
614.4	381.3
614.6	381.2
614.8	378.2
615.0	372.6
615.2	370.9
615.4	367.3
615.6	367.8
615.8	368.9
616.0	368.4
616.2	369.4
616.4	366.8
616.6	362.6
616.8	360.3
617.0	359.1
617.2	356.6
617.4	353.6
617.6	349.1
617.8	345.6
618.0	341.9
618.2	341.4
618.4	339.8
618.6	338.9
618.8	336.4
619.0	335.8
619.2	334.0
619.4	332.3
619.6	330.6
619.8	328.8
620.0	326.6
620.2	325.8
620.4	322.6
620.6	317.3
620.8	314.5
621.0	311.2
621.2	313.8
621.4	315.3
621.6	315.7
621.8	311.7
622.0	309.8
622.2	307.3
622.4	306.0
622.6	302.4
622.8	300.9
623.0	295.2
623.2	292.9
623.4	293.8
623.6	292.5
623.8	292.3
624.0	294.0
624.2	292.1
624.4	288.1
624.6	285.8
624.8	281.6
625.0	280.0
625.2	281.8
625.4	283.2
625.6	280.2
625.8	280.0
626.0	274.4
626.2	270.8
626.4	269.2
626.6	267.2
626.8	266.0
627.0	266.4
627.2	262.2
627.4	260.6
627.6	258.8
627.8	256.2
628.0	254.5
628.2	254.2
628.4	251.6
628.6	251.2
628.8	249.7
629.0	247.2
629.2	245.3
629.4	244.4
629.6	240.8
629.8	239.9
630.0	236.6
630.2	237.2
630.4	238.1
630.6	239.5
630.8	238.9
631.0	236.3
631.2	233.3
631.4	231.6
631.6	227.2
631.8	223.1
632.0	222.0
632.2	222.4
632.4	226.2
632.6	225.4
632.8	223.6
633.0	219.4
633.2	219.6
633.4	220.0
633.6	218.6
633.8	213.3
634.0	211.7
634.2	207.3
634.4	205.7
634.6	204.2
634.8	200.4
635.0	200.3
635.2	203.6
635.4	203.9
635.6	206.3
635.8	207.0
636.0	201.8
636.2	199.9
636.4	197.3
636.6	196.5
636.8	195.8
637.0	194.8
637.2	192.9
637.4	189.6
637.6	187.6
637.8	188.1
638.0	187.0
638.2	185.1
638.4	185.5
638.6	183.2
638.8	183.0
639.0	181.7
639.2	180.3
639.4	179.4
639.6	178.2
639.8	178.1
640.0	177.0
640.2	172.4
640.4	171.5
640.6	172.3
640.8	171.9
641.0	170.0
641.2	168.9
641.4	166.6
641.6	166.8
641.8	166.9
642.0	166.4
642.2	164.6
642.4	164.0
642.6	163.4
642.8	163.5
643.0	162.1
643.2	160.7
643.4	159.7
643.6	156.8
643.8	153.7
644.0	154.0
644.2	153.2
644.4	153.2
644.6	152.7
644.8	153.0
645.0	153.3
645.2	153.3
645.4	151.7
645.6	149.0
645.8	144.9
646.0	144.5
646.2	143.1
646.4	141.2
646.6	141.5
646.8	143.2
647.0	142.0
647.2	143.4
647.4	142.8
647.6	141.5
647.8	142.0
648.0	141.0
648.2	137.7
648.4	137.2
648.6	136.7
648.8	134.9
649.0	136.6
649.2	134.3
649.4	133.9
649.6	133.8
649.8	132.6
650.0	131.0
650.2	130.4
650.4	127.1
650.6	125.6
650.8	124.4
651.0	123.8
651.2	124.5
651.4	124.3
651.6	122.1
651.8	119.5
652.0	119.1
652.2	118.2
652.4	119.7
652.6	118.4
652.8	116.8
653.0	116.3
653.2	116.3
653.4	115.1
653.6	114.8
653.8	113.4
654.0	113.1
654.2	114.9
654.4	114.0
654.6	113.1
654.8	111.2
655.0	108.4
655.2	105.4
655.4	105.6
655.6	104.8
655.8	104.8
656.0	105.0
656.2	104.7
656.4	107.6
656.6	109.5
656.8	107.7
657.0	105.7
657.2	103.2
657.4	100.8
657.6	100.7
657.8	100.5
658.0	97.47
658.2	96.86
658.4	95.75
658.6	95.79
658.8	95.24
659.0	96.27
659.2	95.44
659.4	95.14
659.6	94.50
659.8	94.81
660.0	94.60
660.2	95.34
660.4	95.29
660.6	93.91
660.8	91.73
661.0	90.30
661.2	89.22
661.4	89.90
661.6	90.61
661.8	89.71
662.0	87.91
662.2	86.95
662.4	84.97
662.6	83.91
662.8	82.34
663.0	81.55
663.2	80.30
663.4	80.70
663.6	80.60
663.8	80.90
664.0	80.10
664.2	80.09
664.4	79.70
664.6	79.16
664.8	79.17
665.0	78.89
665.2	79.16
665.4	80.77
665.6	81.84
665.8	79.81
666.0	77.31
666.2	73.84
666.4	73.89
666.6	74.58
666.8	74.64
667.0	74.70
667.2	74.34
667.4	73.56
667.6	74.48
667.8	74.61
668.0	72.62
668.2	72.20
668.4	72.87
668.6	71.95
668.8	69.32
669.0	68.67
669.2	66.41
669.4	67.45
669.6	68.99
669.8	67.79
670.0	66.86
670.2	67.06
670.4	66.49
670.6	65.66
670.8	65.67
671.0	63.72
671.2	64.36
671.4	63.68
671.6	63.61
671.8	61.65
672.0	62.58
672.2	62.31
672.4	64.26
672.6	64.02
672.8	63.47
673.0	62.47
673.2	62.57
673.4	61.56
673.6	61.16
673.8	60.96
674.0	60.68
674.2	61.06
674.4	60.75
674.6	60.42
674.8	58.25
675.0	57.83
675.2	58.43
675.4	59.71
675.6	59.00
675.8	58.48
676.0	56.55
676.2	55.05
676.4	54.95
676.6	56.09
676.8	56.25
677.0	55.12
677.2	53.36
677.4	52.07
677.6	52.06
677.8	52.55
678.0	52.70
678.2	51.93
678.4	52.06
678.6	52.85
678.8	51.72
679.0	50.51
679.2	49.58
679.4	49.14
679.6	51.06
679.8	50.90
680.0	46.19

