Sample:	'20211010A(EM)
File name:	B-CDS 7 700uM.FDS
Run date:	'14:24:21, 06/08/2023
Operator:	Administrator
Comment:	'

Instrument
Model:	F-4700 FL Spectrophotometer
Serial number:	2019-001
ROM Version:	5J24010 00

Instrument parameters
Measurement type:	Wavelength scan
Scan mode:	Emission
Data mode:	Fluorescence
EX WL:	350.0 nm
EM  Start WL:	370.0 nm
EM  End WL:	680.0 nm
Scan speed:	1200 nm/min
Delay:	0.0 s
EX Slit:	10.0 nm
EM Slit:	10.0 nm
PMT Voltage:	550 V
Response:	0.002 s
Corrected spectra:	Off
Shutter control:	On

Processing performed
Savitsky-Golay smoothed
Smoothing order:	3
Number of points:	7
Number of times:	1

Peak integration
Integration method:	Rectangular
Sensitivity:	1
Threshold:	1.000

Peaks
No.	Start(nm)	Apex(nm)	End(nm)	Height(Data)	Valley(nm)	Valley(Data)
1	375.6	380.6	381.4	10.79	381.4	9.666
2	381.4	476.6	477.4	5661	477.4	5612
3	477.4	481.8	482.6	5747	482.6	5718
4	482.6	483.2	483.8	5746	483.8	5722
5	483.8	485.6	487.2	5772	487.2	5707
6	487.2	488.2	677.6	5748	677.6	51.15
7	677.6	678.4	680.0	52.42	680.0	49.33

Data points
nm	Data
370.0	10.38
370.2	9.967
370.4	9.630
370.6	9.300
370.8	8.755
371.0	8.130
371.2	8.184
371.4	8.066
371.6	8.680
371.8	9.315
372.0	9.042
372.2	8.732
372.4	8.831
372.6	8.775
372.8	8.764
373.0	8.778
373.2	8.602
373.4	8.667
373.6	8.826
373.8	8.850
374.0	8.873
374.2	8.912
374.4	9.050
374.6	9.400
374.8	9.264
375.0	8.757
375.2	8.844
375.4	8.591
375.6	8.392
375.8	9.212
376.0	9.578
376.2	9.526
376.4	10.04
376.6	9.749
376.8	9.400
377.0	9.529
377.2	9.666
377.4	9.875
377.6	10.33
377.8	10.17
378.0	10.05
378.2	9.773
378.4	10.02
378.6	10.13
378.8	10.24
379.0	10.32
379.2	10.39
379.4	10.46
379.6	10.43
379.8	10.53
380.0	10.32
380.2	10.02
380.4	10.49
380.6	10.79
380.8	10.00
381.0	9.977
381.2	9.692
381.4	9.666
381.6	10.48
381.8	10.99
382.0	11.24
382.2	11.63
382.4	11.91
382.6	11.94
382.8	12.04
383.0	11.48
383.2	11.53
383.4	11.73
383.6	11.91
383.8	11.92
384.0	12.56
384.2	12.52
384.4	12.87
384.6	13.32
384.8	13.25
385.0	12.46
385.2	12.38
385.4	12.64
385.6	13.11
385.8	13.61
386.0	13.76
386.2	12.57
386.4	12.52
386.6	13.75
386.8	14.51
387.0	15.24
387.2	15.04
387.4	14.09
387.6	13.65
387.8	14.34
388.0	14.70
388.2	14.79
388.4	15.29
388.6	16.29
388.8	16.45
389.0	17.00
389.2	17.29
389.4	16.85
389.6	17.05
389.8	17.90
390.0	18.39
390.2	19.28
390.4	19.78
390.6	19.78
390.8	20.49
391.0	21.54
391.2	22.09
391.4	22.37
391.6	22.23
391.8	22.69
392.0	23.89
392.2	25.43
392.4	25.99
392.6	26.99
392.8	27.46
393.0	28.17
393.2	29.46
393.4	30.73
393.6	31.73
393.8	32.89
394.0	32.74
394.2	31.93
394.4	32.54
394.6	33.64
394.8	34.74
395.0	35.14
395.2	36.49
395.4	37.97
395.6	39.79
395.8	42.22
396.0	43.29
396.2	44.10
396.4	45.65
396.6	46.92
396.8	47.84
397.0	49.28
397.2	50.56
397.4	52.64
397.6	54.83
397.8	56.16
398.0	57.08
398.2	58.13
398.4	59.04
398.6	62.22
398.8	65.92
399.0	68.90
399.2	72.79
399.4	76.03
399.6	76.37
399.8	79.29
400.0	80.59
400.2	83.15
400.4	86.37
400.6	91.40
400.8	94.97
401.0	98.44
401.2	101.1
401.4	104.9
401.6	106.2
401.8	111.8
402.0	114.0
402.2	116.9
402.4	120.5
402.6	124.6
402.8	129.8
403.0	134.1
403.2	134.8
403.4	139.3
403.6	145.1
403.8	151.6
404.0	159.7
404.2	164.3
404.4	166.7
404.6	170.4
404.8	178.3
405.0	183.7
405.2	189.1
405.4	196.7
405.6	199.7
405.8	209.2
406.0	218.7
406.2	225.0
406.4	229.7
406.6	237.4
406.8	242.5
407.0	253.6
407.2	262.4
407.4	268.3
407.6	272.9
407.8	281.6
408.0	292.1
408.2	304.5
408.4	316.8
408.6	325.1
408.8	329.4
409.0	338.0
409.2	344.7
409.4	353.3
409.6	364.1
409.8	375.0
410.0	382.7
410.2	393.5
410.4	407.7
410.6	424.2
410.8	441.8
411.0	454.8
411.2	457.8
411.4	459.4
411.6	469.2
411.8	483.3
412.0	501.7
412.2	521.0
412.4	537.4
412.6	548.4
412.8	558.6
413.0	570.4
413.2	583.0
413.4	593.5
413.6	610.6
413.8	625.6
414.0	645.8
414.2	664.9
414.4	681.9
414.6	689.6
414.8	703.4
415.0	714.9
415.2	730.8
415.4	746.8
415.6	766.5
415.8	785.9
416.0	808.0
416.2	827.3
416.4	843.7
416.6	860.4
416.8	877.3
417.0	891.9
417.2	907.8
417.4	925.7
417.6	944.2
417.8	962.8
418.0	979.4
418.2	998.3
418.4	1022
418.6	1040
418.8	1061
419.0	1081
419.2	1100
419.4	1120
419.6	1139
419.8	1155
420.0	1178
420.2	1207
420.4	1237
420.6	1260
420.8	1283
421.0	1302
421.2	1326
421.4	1346
421.6	1363
421.8	1382
422.0	1406
422.2	1427
422.4	1453
422.6	1479
422.8	1498
423.0	1524
423.2	1545
423.4	1566
423.6	1582
423.8	1612
424.0	1637
424.2	1662
424.4	1678
424.6	1700
424.8	1720
425.0	1750
425.2	1774
425.4	1799
425.6	1814
425.8	1838
426.0	1864
426.2	1896
426.4	1923
426.6	1950
426.8	1971
427.0	1990
427.2	2012
427.4	2031
427.6	2053
427.8	2082
428.0	2112
428.2	2131
428.4	2151
428.6	2168
428.8	2184
429.0	2212
429.2	2245
429.4	2271
429.6	2298
429.8	2324
430.0	2331
430.2	2343
430.4	2368
430.6	2402
430.8	2434
431.0	2460
431.2	2480
431.4	2498
431.6	2523
431.8	2546
432.0	2567
432.2	2587
432.4	2607
432.6	2637
432.8	2662
433.0	2682
433.2	2712
433.4	2739
433.6	2749
433.8	2777
434.0	2789
434.2	2804
434.4	2831
434.6	2852
434.8	2869
435.0	2900
435.2	2919
435.4	2945
435.6	2972
435.8	2995
436.0	3011
436.2	3029
436.4	3041
436.6	3064
436.8	3084
437.0	3102
437.2	3119
437.4	3133
437.6	3151
437.8	3176
438.0	3198
438.2	3212
438.4	3244
438.6	3261
438.8	3269
439.0	3276
439.2	3288
439.4	3304
439.6	3341
439.8	3373
440.0	3395
440.2	3412
440.4	3429
440.6	3439
440.8	3449
441.0	3465
441.2	3487
441.4	3510
441.6	3549
441.8	3565
442.0	3568
442.2	3579
442.4	3599
442.6	3616
442.8	3640
443.0	3650
443.2	3654
443.4	3664
443.6	3689
443.8	3708
444.0	3724
444.2	3744
444.4	3759
444.6	3768
444.8	3781
445.0	3794
445.2	3815
445.4	3845
445.6	3863
445.8	3875
446.0	3872
446.2	3878
446.4	3894
446.6	3922
446.8	3941
447.0	3954
447.2	3963
447.4	3983
447.6	3995
447.8	4016
448.0	4027
448.2	4033
448.4	4047
448.6	4062
448.8	4067
449.0	4083
449.2	4096
449.4	4127
449.6	4143
449.8	4152
450.0	4169
450.2	4178
450.4	4185
450.6	4211
450.8	4222
451.0	4240
451.2	4254
451.4	4263
451.6	4277
451.8	4297
452.0	4319
452.2	4335
452.4	4353
452.6	4362
452.8	4371
453.0	4384
453.2	4400
453.4	4404
453.6	4424
453.8	4431
454.0	4438
454.2	4454
454.4	4475
454.6	4486
454.8	4500
455.0	4523
455.2	4533
455.4	4547
455.6	4556
455.8	4556
456.0	4571
456.2	4591
456.4	4603
456.6	4627
456.8	4648
457.0	4660
457.2	4678
457.4	4688
457.6	4694
457.8	4709
458.0	4721
458.2	4728
458.4	4740
458.6	4757
458.8	4771
459.0	4799
459.2	4815
459.4	4831
459.6	4849
459.8	4848
460.0	4856
460.2	4874
460.4	4882
460.6	4908
460.8	4924
461.0	4936
461.2	4957
461.4	4974
461.6	4979
461.8	5005
462.0	5014
462.2	5020
462.4	5033
462.6	5034
462.8	5051
463.0	5080
463.2	5096
463.4	5096
463.6	5097
463.8	5095
464.0	5125
464.2	5131
464.4	5126
464.6	5124
464.8	5126
465.0	5142
465.2	5174
465.4	5200
465.6	5214
465.8	5227
466.0	5239
466.2	5243
466.4	5247
466.6	5263
466.8	5268
467.0	5277
467.2	5289
467.4	5313
467.6	5329
467.8	5335
468.0	5339
468.2	5338
468.4	5339
468.6	5356
468.8	5368
469.0	5384
469.2	5405
469.4	5403
469.6	5402
469.8	5398
470.0	5399
470.2	5432
470.4	5452
470.6	5460
470.8	5476
471.0	5481
471.2	5483
471.4	5493
471.6	5493
471.8	5502
472.0	5530
472.2	5542
472.4	5546
472.6	5540
472.8	5540
473.0	5553
473.2	5571
473.4	5569
473.6	5578
473.8	5595
474.0	5607
474.2	5614
474.4	5610
474.6	5595
474.8	5608
475.0	5629
475.2	5643
475.4	5652
475.6	5643
475.8	5633
476.0	5633
476.2	5635
476.4	5649
476.6	5661
476.8	5640
477.0	5627
477.2	5615
477.4	5612
477.6	5630
477.8	5664
478.0	5689
478.2	5688
478.4	5689
478.6	5688
478.8	5686
479.0	5687
479.2	5699
479.4	5694
479.6	5708
479.8	5719
480.0	5724
480.2	5723
480.4	5727
480.6	5734
480.8	5739
481.0	5733
481.2	5734
481.4	5742
481.6	5745
481.8	5747
482.0	5741
482.2	5727
482.4	5724
482.6	5718
482.8	5726
483.0	5746
483.2	5746
483.4	5745
483.6	5736
483.8	5722
484.0	5726
484.2	5743
484.4	5735
484.6	5737
484.8	5728
485.0	5742
485.2	5753
485.4	5770
485.6	5772
485.8	5766
486.0	5751
486.2	5748
486.4	5731
486.6	5715
486.8	5715
487.0	5717
487.2	5707
487.4	5717
487.6	5725
487.8	5735
488.0	5735
488.2	5748
488.4	5746
488.6	5739
488.8	5719
489.0	5715
489.2	5691
489.4	5686
489.6	5680
489.8	5675
490.0	5675
490.2	5689
490.4	5697
490.6	5681
490.8	5664
491.0	5663
491.2	5670
491.4	5668
491.6	5665
491.8	5643
492.0	5645
492.2	5633
492.4	5640
492.6	5629
492.8	5614
493.0	5607
493.2	5605
493.4	5581
493.6	5576
493.8	5579
494.0	5581
494.2	5578
494.4	5567
494.6	5547
494.8	5516
495.0	5516
495.2	5513
495.4	5509
495.6	5525
495.8	5523
496.0	5506
496.2	5505
496.4	5511
496.6	5498
496.8	5488
497.0	5452
497.2	5422
497.4	5415
497.6	5423
497.8	5422
498.0	5423
498.2	5415
498.4	5393
498.6	5386
498.8	5381
499.0	5375
499.2	5370
499.4	5351
499.6	5322
499.8	5316
500.0	5311
500.2	5306
500.4	5298
500.6	5282
500.8	5270
501.0	5254
501.2	5237
501.4	5222
501.6	5207
501.8	5204
502.0	5184
502.2	5164
502.4	5149
502.6	5133
502.8	5135
503.0	5131
503.2	5121
503.4	5104
503.6	5090
503.8	5067
504.0	5059
504.2	5042
504.4	5033
504.6	5018
504.8	5008
505.0	4981
505.2	4965
505.4	4959
505.6	4956
505.8	4948
506.0	4935
506.2	4909
506.4	4891
506.6	4886
506.8	4877
507.0	4860
507.2	4847
507.4	4825
507.6	4807
507.8	4786
508.0	4785
508.2	4769
508.4	4761
508.6	4752
508.8	4733
509.0	4711
509.2	4721
509.4	4704
509.6	4694
509.8	4691
510.0	4675
510.2	4652
510.4	4621
510.6	4597
510.8	4576
511.0	4566
511.2	4562
511.4	4547
511.6	4511
511.8	4508
512.0	4507
512.2	4509
512.4	4497
512.6	4466
512.8	4429
513.0	4413
513.2	4405
513.4	4396
513.6	4373
513.8	4347
514.0	4331
514.2	4332
514.4	4318
514.6	4301
514.8	4288
515.0	4275
515.2	4260
515.4	4261
515.6	4231
515.8	4209
516.0	4199
516.2	4202
516.4	4192
516.6	4193
516.8	4168
517.0	4135
517.2	4106
517.4	4092
517.6	4083
517.8	4087
518.0	4080
518.2	4065
518.4	4048
518.6	4023
518.8	4022
519.0	4008
519.2	3992
519.4	3968
519.6	3951
519.8	3924
520.0	3919
520.2	3898
520.4	3892
520.6	3877
520.8	3865
521.0	3851
521.2	3859
521.4	3848
521.6	3841
521.8	3822
522.0	3801
522.2	3783
522.4	3772
522.6	3752
522.8	3722
523.0	3696
523.2	3689
523.4	3679
523.6	3677
523.8	3665
524.0	3654
524.2	3646
524.4	3648
524.6	3632
524.8	3608
525.0	3575
525.2	3560
525.4	3554
525.6	3544
525.8	3536
526.0	3522
526.2	3506
526.4	3506
526.6	3508
526.8	3495
527.0	3477
527.2	3453
527.4	3427
527.6	3415
527.8	3409
528.0	3406
528.2	3394
528.4	3375
528.6	3357
528.8	3335
529.0	3319
529.2	3311
529.4	3309
529.6	3297
529.8	3291
530.0	3273
530.2	3258
530.4	3233
530.6	3222
530.8	3205
531.0	3202
531.2	3193
531.4	3185
531.6	3161
531.8	3154
532.0	3144
532.2	3133
532.4	3125
532.6	3112
532.8	3096
533.0	3079
533.2	3063
533.4	3049
533.6	3046
533.8	3040
534.0	3033
534.2	3020
534.4	3006
534.6	2995
534.8	2984
535.0	2974
535.2	2959
535.4	2950
535.6	2937
535.8	2908
536.0	2893
536.2	2877
536.4	2865
536.6	2866
536.8	2868
537.0	2843
537.2	2827
537.4	2812
537.6	2803
537.8	2795
538.0	2781
538.2	2778
538.4	2769
538.6	2757
538.8	2744
539.0	2718
539.2	2697
539.4	2705
539.6	2697
539.8	2684
540.0	2670
540.2	2650
540.4	2644
540.6	2635
540.8	2625
541.0	2619
541.2	2604
541.4	2596
541.6	2592
541.8	2581
542.0	2574
542.2	2559
542.4	2537
542.6	2527
542.8	2514
543.0	2507
543.2	2489
543.4	2469
543.6	2460
543.8	2453
544.0	2438
544.2	2427
544.4	2403
544.6	2380
544.8	2379
545.0	2375
545.2	2372
545.4	2362
545.6	2352
545.8	2334
546.0	2333
546.2	2326
546.4	2327
546.6	2314
546.8	2300
547.0	2278
547.2	2267
547.4	2248
547.6	2239
547.8	2232
548.0	2227
548.2	2214
548.4	2201
548.6	2182
548.8	2163
549.0	2157
549.2	2161
549.4	2153
549.6	2144
549.8	2135
550.0	2118
550.2	2110
550.4	2105
550.6	2099
550.8	2087
551.0	2074
551.2	2057
551.4	2044
551.6	2036
551.8	2027
552.0	2017
552.2	2008
552.4	1990
552.6	1977
552.8	1969
553.0	1952
553.2	1954
553.4	1953
553.6	1942
553.8	1934
554.0	1921
554.2	1909
554.4	1902
554.6	1895
554.8	1887
555.0	1875
555.2	1859
555.4	1846
555.6	1834
555.8	1828
556.0	1820
556.2	1810
556.4	1804
556.6	1804
556.8	1800
557.0	1801
557.2	1782
557.4	1758
557.6	1743
557.8	1725
558.0	1721
558.2	1725
558.4	1725
558.6	1716
558.8	1714
559.0	1692
559.2	1686
559.4	1681
559.6	1676
559.8	1661
560.0	1655
560.2	1642
560.4	1638
560.6	1631
560.8	1626
561.0	1611
561.2	1588
561.4	1582
561.6	1580
561.8	1571
562.0	1573
562.2	1565
562.4	1543
562.6	1544
562.8	1539
563.0	1527
563.2	1525
563.4	1515
563.6	1500
563.8	1496
564.0	1486
564.2	1481
564.4	1483
564.6	1476
564.8	1464
565.0	1453
565.2	1439
565.4	1435
565.6	1434
565.8	1428
566.0	1421
566.2	1412
566.4	1395
566.6	1388
566.8	1382
567.0	1378
567.2	1377
567.4	1365
567.6	1360
567.8	1361
568.0	1361
568.2	1360
568.4	1350
568.6	1329
568.8	1320
569.0	1311
569.2	1309
569.4	1302
569.6	1290
569.8	1275
570.0	1266
570.2	1263
570.4	1267
570.6	1269
570.8	1263
571.0	1250
571.2	1240
571.4	1231
571.6	1230
571.8	1230
572.0	1223
572.2	1218
572.4	1214
572.6	1203
572.8	1197
573.0	1186
573.2	1172
573.4	1167
573.6	1166
573.8	1165
574.0	1162
574.2	1153
574.4	1143
574.6	1137
574.8	1126
575.0	1120
575.2	1115
575.4	1107
575.6	1104
575.8	1104
576.0	1095
576.2	1100
576.4	1098
576.6	1092
576.8	1078
577.0	1067
577.2	1051
577.4	1054
577.6	1055
577.8	1058
578.0	1047
578.2	1039
578.4	1027
578.6	1025
578.8	1023
579.0	1019
579.2	1010
579.4	1003
579.6	996.2
579.8	992.6
580.0	989.6
580.2	984.0
580.4	985.4
580.6	980.2
580.8	974.4
581.0	968.7
581.2	961.0
581.4	954.5
581.6	950.6
581.8	948.3
582.0	941.8
582.2	933.1
582.4	924.7
582.6	919.0
582.8	913.1
583.0	911.3
583.2	907.8
583.4	904.5
583.6	903.2
583.8	897.2
584.0	891.5
584.2	884.1
584.4	882.2
584.6	880.0
584.8	876.9
585.0	866.8
585.2	857.6
585.4	851.7
585.6	850.8
585.8	846.3
586.0	841.7
586.2	834.7
586.4	832.5
586.6	832.7
586.8	833.5
587.0	825.4
587.2	811.9
587.4	805.4
587.6	804.3
587.8	802.3
588.0	802.1
588.2	790.5
588.4	778.2
588.6	775.4
588.8	773.9
589.0	775.8
589.2	775.5
589.4	771.0
589.6	766.5
589.8	763.0
590.0	762.7
590.2	759.7
590.4	756.0
590.6	756.2
590.8	747.1
591.0	738.2
591.2	728.6
591.4	719.0
591.6	716.9
591.8	723.0
592.0	721.9
592.2	719.7
592.4	708.9
592.6	700.9
592.8	693.5
593.0	695.3
593.2	694.6
593.4	693.8
593.6	690.7
593.8	685.1
594.0	684.7
594.2	680.3
594.4	673.2
594.6	669.1
594.8	663.8
595.0	661.4
595.2	662.4
595.4	655.4
595.6	652.8
595.8	652.1
596.0	643.6
596.2	639.9
596.4	637.6
596.6	629.9
596.8	631.6
597.0	627.9
597.2	621.8
597.4	618.0
597.6	614.5
597.8	606.2
598.0	607.4
598.2	601.0
598.4	600.9
598.6	600.1
598.8	596.4
599.0	591.3
599.2	589.8
599.4	586.7
599.6	587.2
599.8	583.4
600.0	578.7
600.2	572.8
600.4	567.6
600.6	558.6
600.8	556.8
601.0	553.9
601.2	554.0
601.4	555.9
601.6	554.7
601.8	545.0
602.0	542.9
602.2	542.4
602.4	541.4
602.6	541.4
602.8	540.6
603.0	534.3
603.2	529.4
603.4	521.6
603.6	515.4
603.8	509.6
604.0	509.7
604.2	507.6
604.4	504.1
604.6	499.3
604.8	504.2
605.0	503.2
605.2	506.0
605.4	502.2
605.6	492.9
605.8	486.6
606.0	488.6
606.2	483.8
606.4	481.5
606.6	480.1
606.8	478.1
607.0	475.5
607.2	473.8
607.4	470.2
607.6	468.6
607.8	469.7
608.0	469.3
608.2	463.6
608.4	458.4
608.6	453.8
608.8	449.5
609.0	445.3
609.2	441.7
609.4	441.3
609.6	441.5
609.8	436.6
610.0	435.4
610.2	433.4
610.4	429.9
610.6	432.7
610.8	426.4
611.0	420.8
611.2	416.9
611.4	414.2
611.6	416.3
611.8	418.4
612.0	412.9
612.2	409.8
612.4	404.9
612.6	398.7
612.8	397.0
613.0	392.7
613.2	389.6
613.4	386.5
613.6	388.9
613.8	387.4
614.0	383.6
614.2	379.1
614.4	378.5
614.6	374.7
614.8	374.0
615.0	373.2
615.2	371.7
615.4	369.7
615.6	367.9
615.8	364.5
616.0	364.2
616.2	363.1
616.4	362.5
616.6	359.1
616.8	354.2
617.0	351.0
617.2	351.1
617.4	348.6
617.6	345.6
617.8	345.4
618.0	345.1
618.2	345.8
618.4	344.1
618.6	343.4
618.8	340.7
619.0	335.6
619.2	331.6
619.4	331.8
619.6	329.3
619.8	327.7
620.0	322.2
620.2	315.5
620.4	316.1
620.6	321.2
620.8	322.6
621.0	320.9
621.2	311.7
621.4	307.3
621.6	303.3
621.8	302.0
622.0	302.2
622.2	303.0
622.4	302.2
622.6	301.4
622.8	300.6
623.0	298.5
623.2	296.4
623.4	294.3
623.6	293.6
623.8	288.7
624.0	286.6
624.2	287.2
624.4	287.2
624.6	287.5
624.8	286.7
625.0	283.6
625.2	280.7
625.4	280.2
625.6	277.4
625.8	276.1
626.0	276.0
626.2	272.5
626.4	269.6
626.6	267.2
626.8	265.9
627.0	264.1
627.2	263.0
627.4	258.4
627.6	254.7
627.8	254.0
628.0	253.6
628.2	251.5
628.4	250.8
628.6	250.4
628.8	247.9
629.0	245.7
629.2	244.1
629.4	243.9
629.6	241.7
629.8	243.5
630.0	242.3
630.2	242.0
630.4	241.1
630.6	239.5
630.8	232.5
631.0	234.1
631.2	232.6
631.4	229.1
631.6	225.1
631.8	220.2
632.0	215.8
632.2	220.0
632.4	223.4
632.6	222.4
632.8	222.3
633.0	220.2
633.2	218.3
633.4	217.4
633.6	214.2
633.8	210.3
634.0	206.8
634.2	203.5
634.4	203.9
634.6	206.2
634.8	205.7
635.0	205.6
635.2	203.1
635.4	200.5
635.6	199.7
635.8	201.6
636.0	201.1
636.2	199.8
636.4	197.7
636.6	197.0
636.8	195.8
637.0	195.2
637.2	193.5
637.4	190.0
637.6	186.8
637.8	184.8
638.0	184.9
638.2	185.2
638.4	185.2
638.6	182.6
638.8	180.2
639.0	179.1
639.2	177.8
639.4	177.9
639.6	174.3
639.8	173.5
640.0	173.4
640.2	174.9
640.4	174.1
640.6	174.1
640.8	170.8
641.0	168.6
641.2	166.6
641.4	164.4
641.6	162.2
641.8	162.7
642.0	164.1
642.2	164.1
642.4	164.5
642.6	163.8
642.8	163.5
643.0	160.5
643.2	156.5
643.4	155.5
643.6	154.0
643.8	154.6
644.0	155.9
644.2	153.8
644.4	149.9
644.6	150.7
644.8	150.4
645.0	149.0
645.2	148.4
645.4	145.4
645.6	141.3
645.8	141.5
646.0	141.5
646.2	140.6
646.4	143.3
646.6	142.1
646.8	141.1
647.0	140.1
647.2	139.5
647.4	138.6
647.6	140.1
647.8	137.2
648.0	136.7
648.2	135.0
648.4	132.8
648.6	131.5
648.8	132.1
649.0	129.7
649.2	129.9
649.4	128.8
649.6	127.1
649.8	127.5
650.0	128.8
650.2	127.2
650.4	125.4
650.6	124.3
650.8	123.3
651.0	122.7
651.2	122.0
651.4	120.6
651.6	120.1
651.8	123.0
652.0	121.7
652.2	120.1
652.4	116.4
652.6	113.9
652.8	113.1
653.0	115.0
653.2	115.5
653.4	116.2
653.6	113.8
653.8	113.6
654.0	112.7
654.2	111.7
654.4	112.1
654.6	110.5
654.8	108.3
655.0	108.4
655.2	106.3
655.4	105.9
655.6	107.3
655.8	106.3
656.0	106.1
656.2	107.4
656.4	103.8
656.6	102.2
656.8	102.6
657.0	100.2
657.2	100.9
657.4	104.1
657.6	102.9
657.8	101.0
658.0	100.6
658.2	97.52
658.4	98.08
658.6	99.22
658.8	97.53
659.0	96.46
659.2	97.35
659.4	95.98
659.6	94.76
659.8	94.39
660.0	91.87
660.2	90.39
660.4	92.50
660.6	93.35
660.8	92.61
661.0	92.74
661.2	89.92
661.4	85.60
661.6	84.06
661.8	84.83
662.0	86.22
662.2	86.28
662.4	84.89
662.6	83.26
662.8	81.47
663.0	82.84
663.2	83.66
663.4	82.22
663.6	82.13
663.8	82.49
664.0	82.59
664.2	83.19
664.4	82.16
664.6	81.75
664.8	80.58
665.0	80.71
665.2	79.52
665.4	79.61
665.6	78.97
665.8	78.06
666.0	76.04
666.2	75.17
666.4	73.69
666.6	74.45
666.8	74.39
667.0	73.26
667.2	71.94
667.4	71.15
667.6	70.83
667.8	71.38
668.0	72.23
668.2	72.47
668.4	71.03
668.6	70.68
668.8	70.57
669.0	70.55
669.2	70.45
669.4	70.26
669.6	68.51
669.8	67.35
670.0	67.85
670.2	68.49
670.4	68.01
670.6	67.47
670.8	66.16
671.0	63.23
671.2	63.23
671.4	63.03
671.6	63.88
671.8	65.04
672.0	66.18
672.2	63.60
672.4	62.74
672.6	61.79
672.8	61.44
673.0	62.03
673.2	61.92
673.4	60.35
673.6	58.77
673.8	59.05
674.0	59.56
674.2	61.15
674.4	61.69
674.6	60.60
674.8	58.27
675.0	57.99
675.2	57.90
675.4	58.07
675.6	58.42
675.8	57.18
676.0	55.88
676.2	55.43
676.4	54.46
676.6	53.86
676.8	53.42
677.0	52.39
677.2	52.21
677.4	51.43
677.6	51.15
677.8	51.36
678.0	52.01
678.2	52.10
678.4	52.42
678.6	52.29
678.8	51.75
679.0	51.65
679.2	51.86
679.4	51.03
679.6	49.99
679.8	49.28
680.0	49.33

