Sample:	'20211010A(EM)
File name:	G-NI-CHO 410V.FDS
Run date:	'16:37:57, 03/23/2023
Operator:	Administrator
Comment:	'

Instrument
Model:	F-4700 FL Spectrophotometer
Serial number:	2019-001
ROM Version:	5J24010 00

Instrument parameters
Measurement type:	Wavelength scan
Scan mode:	Emission
Data mode:	Fluorescence
EX WL:	410.0 nm
EM  Start WL:	420.0 nm
EM  End WL:	820.0 nm
Scan speed:	1200 nm/min
Delay:	0.0 s
EX Slit:	10.0 nm
EM Slit:	10.0 nm
PMT Voltage:	410 V
Response:	0.002 s
Corrected spectra:	Off
Shutter control:	On

Processing performed
Savitsky-Golay smoothed
Smoothing order:	3
Number of points:	7
Number of times:	1

Peak integration
Integration method:	Rectangular
Sensitivity:	1
Threshold:	1.000

Peaks
No.	Start(nm)	Apex(nm)	End(nm)	Height(Data)	Valley(nm)	Valley(Data)
1	429.2	534.0	535.8	6864	535.8	6855
2	535.8	536.2	796.6	6862	796.6	3.585

Data points
nm	Data
420.0	263.6
420.2	252.3
420.4	238.0
420.6	222.3
420.8	207.0
421.0	194.1
421.2	181.8
421.4	169.7
421.6	158.7
421.8	147.9
422.0	137.7
422.2	128.1
422.4	119.8
422.6	111.1
422.8	103.0
423.0	95.69
423.2	88.65
423.4	81.94
423.6	76.13
423.8	70.46
424.0	65.03
424.2	60.24
424.4	55.64
424.6	51.24
424.8	47.66
425.0	44.51
425.2	41.63
425.4	38.64
425.6	35.64
425.8	32.79
426.0	30.70
426.2	28.99
426.4	27.47
426.6	26.22
426.8	24.85
427.0	23.42
427.2	22.25
427.4	21.40
427.6	20.49
427.8	20.03
428.0	19.49
428.2	19.08
428.4	18.70
428.6	18.57
428.8	18.57
429.0	18.56
429.2	18.35
429.4	18.40
429.6	18.48
429.8	18.87
430.0	19.19
430.2	19.26
430.4	19.19
430.6	19.30
430.8	19.46
431.0	19.93
431.2	20.16
431.4	20.42
431.6	20.82
431.8	21.20
432.0	21.33
432.2	21.59
432.4	21.78
432.6	22.22
432.8	22.67
433.0	23.07
433.2	23.30
433.4	23.64
433.6	24.04
433.8	24.44
434.0	24.72
434.2	25.04
434.4	25.45
434.6	25.84
434.8	26.19
435.0	26.44
435.2	26.96
435.4	27.58
435.6	28.40
435.8	28.96
436.0	29.42
436.2	29.63
436.4	30.10
436.6	30.66
436.8	31.21
437.0	31.79
437.2	32.47
437.4	32.91
437.6	33.51
437.8	33.90
438.0	34.35
438.2	35.01
438.4	35.80
438.6	36.43
438.8	37.04
439.0	37.61
439.2	38.41
439.4	39.03
439.6	39.78
439.8	40.62
440.0	41.33
440.2	42.29
440.4	43.10
440.6	43.59
440.8	44.45
441.0	45.33
441.2	46.07
441.4	46.72
441.6	47.35
441.8	48.15
442.0	49.42
442.2	50.18
442.4	50.90
442.6	51.48
442.8	52.15
443.0	53.12
443.2	54.43
443.4	55.39
443.6	56.56
443.8	57.50
444.0	58.20
444.2	58.98
444.4	59.85
444.6	60.94
444.8	61.95
445.0	62.92
445.2	63.82
445.4	64.75
445.6	65.58
445.8	66.68
446.0	67.46
446.2	68.58
446.4	70.00
446.6	71.37
446.8	72.46
447.0	73.26
447.2	73.88
447.4	74.79
447.6	76.02
447.8	77.64
448.0	78.60
448.2	79.59
448.4	80.53
448.6	81.60
448.8	82.79
449.0	84.08
449.2	84.82
449.4	86.05
449.6	87.18
449.8	88.78
450.0	90.29
450.2	91.60
450.4	92.53
450.6	93.42
450.8	94.37
451.0	96.05
451.2	97.57
451.4	99.51
451.6	100.9
451.8	102.5
452.0	103.6
452.2	105.0
452.4	105.9
452.6	107.5
452.8	108.6
453.0	110.7
453.2	112.6
453.4	113.9
453.6	115.2
453.8	117.2
454.0	118.9
454.2	121.1
454.4	123.0
454.6	124.6
454.8	126.4
455.0	128.4
455.2	130.5
455.4	132.6
455.6	134.8
455.8	137.4
456.0	139.4
456.2	141.2
456.4	143.4
456.6	145.8
456.8	148.5
457.0	151.3
457.2	153.9
457.4	156.0
457.6	158.5
457.8	161.1
458.0	163.6
458.2	166.6
458.4	169.8
458.6	172.9
458.8	176.0
459.0	179.5
459.2	182.8
459.4	186.8
459.6	190.6
459.8	194.4
460.0	198.0
460.2	201.9
460.4	205.6
460.6	209.6
460.8	213.2
461.0	217.8
461.2	222.8
461.4	228.0
461.6	233.4
461.8	238.1
462.0	242.6
462.2	247.1
462.4	252.4
462.6	258.0
462.8	263.9
463.0	269.4
463.2	274.9
463.4	280.2
463.6	285.9
463.8	291.6
464.0	297.6
464.2	303.9
464.4	309.9
464.6	316.6
464.8	323.3
465.0	329.7
465.2	336.8
465.4	343.6
465.6	350.4
465.8	358.1
466.0	365.7
466.2	373.7
466.4	382.6
466.6	390.7
466.8	398.6
467.0	406.6
467.2	413.9
467.4	422.7
467.6	431.6
467.8	441.4
468.0	450.2
468.2	458.8
468.4	467.2
468.6	476.6
468.8	485.1
469.0	495.2
469.2	506.1
469.4	517.3
469.6	528.0
469.8	538.7
470.0	548.4
470.2	559.4
470.4	571.1
470.6	582.1
470.8	593.1
471.0	604.7
471.2	617.0
471.4	629.2
471.6	640.3
471.8	652.3
472.0	664.5
472.2	678.0
472.4	690.9
472.6	702.9
472.8	714.0
473.0	726.3
473.2	738.6
473.4	751.5
473.6	764.1
473.8	778.8
474.0	793.2
474.2	808.0
474.4	821.4
474.6	834.9
474.8	849.1
475.0	864.2
475.2	879.2
475.4	894.7
475.6	909.2
475.8	925.8
476.0	941.8
476.2	957.6
476.4	971.8
476.6	987.5
476.8	1003
477.0	1019
477.2	1035
477.4	1051
477.6	1065
477.8	1084
478.0	1101
478.2	1119
478.4	1135
478.6	1151
478.8	1165
479.0	1182
479.2	1199
479.4	1217
479.6	1235
479.8	1255
480.0	1271
480.2	1290
480.4	1308
480.6	1325
480.8	1343
481.0	1364
481.2	1381
481.4	1401
481.6	1420
481.8	1439
482.0	1458
482.2	1479
482.4	1498
482.6	1518
482.8	1537
483.0	1557
483.2	1577
483.4	1595
483.6	1615
483.8	1635
484.0	1657
484.2	1678
484.4	1697
484.6	1716
484.8	1736
485.0	1758
485.2	1782
485.4	1805
485.6	1827
485.8	1850
486.0	1869
486.2	1891
486.4	1911
486.6	1935
486.8	1959
487.0	1983
487.2	2006
487.4	2028
487.6	2048
487.8	2071
488.0	2094
488.2	2118
488.4	2140
488.6	2162
488.8	2183
489.0	2205
489.2	2228
489.4	2252
489.6	2277
489.8	2305
490.0	2332
490.2	2356
490.4	2380
490.6	2405
490.8	2429
491.0	2456
491.2	2482
491.4	2506
491.6	2530
491.8	2555
492.0	2579
492.2	2604
492.4	2631
492.6	2659
492.8	2685
493.0	2711
493.2	2736
493.4	2761
493.6	2789
493.8	2816
494.0	2842
494.2	2869
494.4	2894
494.6	2920
494.8	2946
495.0	2971
495.2	2997
495.4	3025
495.6	3050
495.8	3079
496.0	3109
496.2	3137
496.4	3170
496.6	3199
496.8	3223
497.0	3251
497.2	3277
497.4	3302
497.6	3330
497.8	3356
498.0	3384
498.2	3413
498.4	3443
498.6	3474
498.8	3503
499.0	3529
499.2	3555
499.4	3583
499.6	3613
499.8	3645
500.0	3677
500.2	3706
500.4	3735
500.6	3766
500.8	3795
501.0	3823
501.2	3850
501.4	3877
501.6	3904
501.8	3935
502.0	3965
502.2	3992
502.4	4021
502.6	4054
502.8	4081
503.0	4110
503.2	4136
503.4	4162
503.6	4189
503.8	4223
504.0	4252
504.2	4283
504.4	4312
504.6	4342
504.8	4367
505.0	4396
505.2	4424
505.4	4452
505.6	4482
505.8	4510
506.0	4541
506.2	4570
506.4	4600
506.6	4629
506.8	4656
507.0	4684
507.2	4713
507.4	4744
507.6	4775
507.8	4805
508.0	4832
508.2	4860
508.4	4888
508.6	4918
508.8	4942
509.0	4966
509.2	4990
509.4	5016
509.6	5041
509.8	5065
510.0	5090
510.2	5115
510.4	5145
510.6	5176
510.8	5202
511.0	5230
511.2	5258
511.4	5286
511.6	5313
511.8	5338
512.0	5360
512.2	5386
512.4	5414
512.6	5443
512.8	5469
513.0	5495
513.2	5513
513.4	5535
513.6	5555
513.8	5576
514.0	5595
514.2	5615
514.4	5636
514.6	5662
514.8	5685
515.0	5713
515.2	5736
515.4	5757
515.6	5776
515.8	5798
516.0	5820
516.2	5846
516.4	5872
516.6	5893
516.8	5910
517.0	5930
517.2	5954
517.4	5979
517.6	6003
517.8	6025
518.0	6042
518.2	6061
518.4	6083
518.6	6100
518.8	6118
519.0	6138
519.2	6152
519.4	6172
519.6	6188
519.8	6203
520.0	6218
520.2	6232
520.4	6247
520.6	6266
520.8	6278
521.0	6293
521.2	6313
521.4	6334
521.6	6352
521.8	6369
522.0	6384
522.2	6393
522.4	6411
522.6	6427
522.8	6444
523.0	6458
523.2	6473
523.4	6485
523.6	6494
523.8	6507
524.0	6518
524.2	6522
524.4	6528
524.6	6538
524.8	6548
525.0	6567
525.2	6580
525.4	6593
525.6	6603
525.8	6615
526.0	6621
526.2	6633
526.4	6642
526.6	6653
526.8	6664
527.0	6678
527.2	6685
527.4	6697
527.6	6703
527.8	6711
528.0	6721
528.2	6729
528.4	6736
528.6	6744
528.8	6750
529.0	6752
529.2	6759
529.4	6766
529.6	6770
529.8	6777
530.0	6779
530.2	6779
530.4	6783
530.6	6784
530.8	6788
531.0	6796
531.2	6804
531.4	6815
531.6	6821
531.8	6826
532.0	6830
532.2	6837
532.4	6844
532.6	6848
532.8	6854
533.0	6855
533.2	6859
533.4	6858
533.6	6861
533.8	6861
534.0	6864
534.2	6862
534.4	6864
534.6	6859
534.8	6861
535.0	6862
535.2	6859
535.4	6856
535.6	6856
535.8	6855
536.0	6860
536.2	6862
536.4	6860
536.6	6858
536.8	6858
537.0	6855
537.2	6853
537.4	6851
537.6	6851
537.8	6854
538.0	6853
538.2	6852
538.4	6848
538.6	6845
538.8	6843
539.0	6838
539.2	6832
539.4	6828
539.6	6827
539.8	6828
540.0	6824
540.2	6816
540.4	6806
540.6	6796
540.8	6794
541.0	6794
541.2	6791
541.4	6783
541.6	6778
541.8	6771
542.0	6768
542.2	6767
542.4	6765
542.6	6765
542.8	6764
543.0	6757
543.2	6749
543.4	6743
543.6	6734
543.8	6728
544.0	6718
544.2	6711
544.4	6702
544.6	6695
544.8	6679
545.0	6668
545.2	6663
545.4	6657
545.6	6652
545.8	6645
546.0	6630
546.2	6623
546.4	6614
546.6	6610
546.8	6602
547.0	6594
547.2	6587
547.4	6578
547.6	6566
547.8	6561
548.0	6550
548.2	6545
548.4	6537
548.6	6530
548.8	6523
549.0	6512
549.2	6500
549.4	6488
549.6	6476
549.8	6461
550.0	6449
550.2	6437
550.4	6426
550.6	6418
550.8	6403
551.0	6388
551.2	6375
551.4	6365
551.6	6359
551.8	6352
552.0	6342
552.2	6333
552.4	6325
552.6	6319
552.8	6312
553.0	6298
553.2	6286
553.4	6268
553.6	6258
553.8	6246
554.0	6231
554.2	6213
554.4	6197
554.6	6183
554.8	6171
555.0	6156
555.2	6139
555.4	6126
555.6	6114
555.8	6102
556.0	6085
556.2	6069
556.4	6053
556.6	6040
556.8	6030
557.0	6021
557.2	6009
557.4	5996
557.6	5987
557.8	5974
558.0	5961
558.2	5949
558.4	5938
558.6	5923
558.8	5911
559.0	5897
559.2	5877
559.4	5861
559.6	5845
559.8	5829
560.0	5815
560.2	5797
560.4	5778
560.6	5761
560.8	5740
561.0	5723
561.2	5709
561.4	5694
561.6	5683
561.8	5672
562.0	5659
562.2	5645
562.4	5630
562.6	5617
562.8	5600
563.0	5588
563.2	5575
563.4	5560
563.6	5543
563.8	5527
564.0	5509
564.2	5493
564.4	5478
564.6	5462
564.8	5441
565.0	5423
565.2	5406
565.4	5386
565.6	5368
565.8	5350
566.0	5331
566.2	5313
566.4	5298
566.6	5280
566.8	5267
567.0	5252
567.2	5238
567.4	5227
567.6	5211
567.8	5196
568.0	5182
568.2	5164
568.4	5149
568.6	5135
568.8	5117
569.0	5101
569.2	5083
569.4	5065
569.6	5044
569.8	5025
570.0	5005
570.2	4985
570.4	4968
570.6	4951
570.8	4934
571.0	4920
571.2	4901
571.4	4882
571.6	4865
571.8	4846
572.0	4829
572.2	4815
572.4	4800
572.6	4787
572.8	4776
573.0	4760
573.2	4742
573.4	4726
573.6	4709
573.8	4693
574.0	4678
574.2	4660
574.4	4642
574.6	4622
574.8	4603
575.0	4582
575.2	4561
575.4	4542
575.6	4526
575.8	4510
576.0	4496
576.2	4478
576.4	4458
576.6	4440
576.8	4423
577.0	4406
577.2	4391
577.4	4375
577.6	4359
577.8	4345
578.0	4332
578.2	4314
578.4	4298
578.6	4280
578.8	4261
579.0	4244
579.2	4226
579.4	4208
579.6	4192
579.8	4177
580.0	4162
580.2	4147
580.4	4129
580.6	4109
580.8	4090
581.0	4074
581.2	4058
581.4	4047
581.6	4030
581.8	4011
582.0	3991
582.2	3971
582.4	3953
582.6	3938
582.8	3927
583.0	3913
583.2	3898
583.4	3880
583.6	3863
583.8	3846
584.0	3832
584.2	3814
584.4	3797
584.6	3779
584.8	3764
585.0	3744
585.2	3728
585.4	3709
585.6	3690
585.8	3672
586.0	3656
586.2	3640
586.4	3627
586.6	3613
586.8	3599
587.0	3587
587.2	3574
587.4	3558
587.6	3540
587.8	3524
588.0	3511
588.2	3498
588.4	3483
588.6	3467
588.8	3449
589.0	3430
589.2	3415
589.4	3401
589.6	3388
589.8	3375
590.0	3359
590.2	3339
590.4	3319
590.6	3301
590.8	3286
591.0	3270
591.2	3256
591.4	3243
591.6	3228
591.8	3215
592.0	3201
592.2	3187
592.4	3170
592.6	3156
592.8	3138
593.0	3123
593.2	3110
593.4	3098
593.6	3084
593.8	3068
594.0	3052
594.2	3037
594.4	3027
594.6	3013
594.8	3000
595.0	2985
595.2	2971
595.4	2956
595.6	2941
595.8	2924
596.0	2907
596.2	2892
596.4	2879
596.6	2867
596.8	2854
597.0	2838
597.2	2824
597.4	2811
597.6	2798
597.8	2786
598.0	2775
598.2	2762
598.4	2751
598.6	2738
598.8	2724
599.0	2709
599.2	2696
599.4	2684
599.6	2670
599.8	2655
600.0	2643
600.2	2631
600.4	2618
600.6	2604
600.8	2587
601.0	2572
601.2	2559
601.4	2546
601.6	2535
601.8	2521
602.0	2506
602.2	2493
602.4	2479
602.6	2466
602.8	2454
603.0	2443
603.2	2432
603.4	2422
603.6	2409
603.8	2396
604.0	2383
604.2	2373
604.4	2360
604.6	2347
604.8	2335
605.0	2321
605.2	2308
605.4	2296
605.6	2282
605.8	2269
606.0	2258
606.2	2246
606.4	2233
606.6	2222
606.8	2209
607.0	2197
607.2	2185
607.4	2173
607.6	2161
607.8	2150
608.0	2140
608.2	2131
608.4	2120
608.6	2111
608.8	2098
609.0	2085
609.2	2073
609.4	2062
609.6	2051
609.8	2041
610.0	2029
610.2	2019
610.4	2006
610.6	1995
610.8	1982
611.0	1967
611.2	1955
611.4	1944
611.6	1933
611.8	1924
612.0	1913
612.2	1902
612.4	1891
612.6	1881
612.8	1871
613.0	1862
613.2	1851
613.4	1839
613.6	1829
613.8	1821
614.0	1814
614.2	1804
614.4	1794
614.6	1780
614.8	1770
615.0	1759
615.2	1749
615.4	1738
615.6	1729
615.8	1717
616.0	1707
616.2	1695
616.4	1685
616.6	1674
616.8	1665
617.0	1656
617.2	1647
617.4	1637
617.6	1628
617.8	1618
618.0	1610
618.2	1599
618.4	1589
618.6	1580
618.8	1571
619.0	1563
619.2	1556
619.4	1544
619.6	1535
619.8	1524
620.0	1516
620.2	1508
620.4	1498
620.6	1488
620.8	1478
621.0	1468
621.2	1460
621.4	1451
621.6	1443
621.8	1434
622.0	1425
622.2	1416
622.4	1407
622.6	1398
622.8	1390
623.0	1382
623.2	1374
623.4	1367
623.6	1359
623.8	1350
624.0	1341
624.2	1332
624.4	1325
624.6	1318
624.8	1311
625.0	1302
625.2	1292
625.4	1282
625.6	1274
625.8	1267
626.0	1260
626.2	1252
626.4	1242
626.6	1233
626.8	1225
627.0	1218
627.2	1210
627.4	1202
627.6	1192
627.8	1185
628.0	1177
628.2	1171
628.4	1165
628.6	1158
628.8	1149
629.0	1142
629.2	1135
629.4	1128
629.6	1121
629.8	1112
630.0	1104
630.2	1095
630.4	1090
630.6	1084
630.8	1078
631.0	1070
631.2	1063
631.4	1054
631.6	1048
631.8	1041
632.0	1036
632.2	1029
632.4	1022
632.6	1016
632.8	1010
633.0	1002
633.2	997.2
633.4	990.8
633.6	985.6
633.8	981.3
634.0	974.6
634.2	966.9
634.4	959.3
634.6	950.8
634.8	944.1
635.0	938.1
635.2	932.8
635.4	927.4
635.6	920.8
635.8	914.2
636.0	907.9
636.2	900.6
636.4	894.6
636.6	888.4
636.8	883.3
637.0	879.3
637.2	874.3
637.4	867.9
637.6	861.0
637.8	854.0
638.0	847.4
638.2	841.9
638.4	835.9
638.6	830.6
638.8	826.0
639.0	821.5
639.2	816.1
639.4	811.4
639.6	806.2
639.8	801.4
640.0	795.7
640.2	791.1
640.4	785.9
640.6	780.2
640.8	773.9
641.0	768.2
641.2	761.4
641.4	755.9
641.6	750.2
641.8	744.5
642.0	738.2
642.2	733.3
642.4	729.0
642.6	725.3
642.8	721.1
643.0	716.5
643.2	711.2
643.4	706.2
643.6	701.9
643.8	697.5
644.0	692.3
644.2	687.0
644.4	682.0
644.6	677.5
644.8	674.7
645.0	670.3
645.2	665.1
645.4	658.7
645.6	653.3
645.8	649.6
646.0	646.3
646.2	642.4
646.4	638.0
646.6	631.6
646.8	626.6
647.0	622.4
647.2	618.2
647.4	614.0
647.6	610.1
647.8	605.5
648.0	602.1
648.2	598.3
648.4	594.8
648.6	590.1
648.8	586.1
649.0	580.9
649.2	576.5
649.4	571.6
649.6	567.8
649.8	564.0
650.0	560.6
650.2	557.7
650.4	554.8
650.6	550.4
650.8	546.8
651.0	542.4
651.2	538.1
651.4	534.0
651.6	530.9
651.8	525.7
652.0	522.5
652.2	518.7
652.4	515.3
652.6	509.9
652.8	506.5
653.0	502.8
653.2	500.2
653.4	497.2
653.6	494.2
653.8	490.4
654.0	486.8
654.2	483.6
654.4	479.5
654.6	476.2
654.8	473.7
655.0	470.5
655.2	467.3
655.4	463.3
655.6	458.4
655.8	455.1
656.0	452.2
656.2	448.8
656.4	445.6
656.6	442.5
656.8	438.1
657.0	435.4
657.2	432.4
657.4	429.6
657.6	426.6
657.8	423.7
658.0	420.0
658.2	417.6
658.4	414.2
658.6	412.2
658.8	409.5
659.0	406.4
659.2	402.8
659.4	399.6
659.6	395.7
659.8	393.5
660.0	391.0
660.2	388.2
660.4	385.2
660.6	382.6
660.8	378.5
661.0	376.2
661.2	372.9
661.4	369.6
661.6	367.4
661.8	365.7
662.0	362.7
662.2	360.8
662.4	358.2
662.6	355.3
662.8	352.8
663.0	349.8
663.2	346.4
663.4	343.6
663.6	341.4
663.8	339.1
664.0	337.1
664.2	334.8
664.4	332.4
664.6	330.3
664.8	327.7
665.0	325.0
665.2	322.6
665.4	320.4
665.6	318.6
665.8	317.0
666.0	314.6
666.2	311.7
666.4	308.7
666.6	306.1
666.8	304.2
667.0	302.6
667.2	299.9
667.4	297.2
667.6	294.9
667.8	292.7
668.0	290.3
668.2	287.8
668.4	284.8
668.6	283.0
668.8	281.2
669.0	279.9
669.2	277.4
669.4	274.8
669.6	272.2
669.8	270.8
670.0	269.1
670.2	267.8
670.4	265.6
670.6	263.5
670.8	262.1
671.0	260.0
671.2	257.9
671.4	255.6
671.6	254.0
671.8	252.3
672.0	251.1
672.2	248.7
672.4	246.2
672.6	243.9
672.8	242.2
673.0	240.3
673.2	238.5
673.4	236.3
673.6	234.1
673.8	232.6
674.0	231.2
674.2	229.6
674.4	228.5
674.6	227.1
674.8	225.9
675.0	224.8
675.2	222.3
675.4	220.1
675.6	218.2
675.8	216.3
676.0	215.0
676.2	213.4
676.4	210.9
676.6	209.2
676.8	207.6
677.0	205.9
677.2	203.9
677.4	202.2
677.6	200.6
677.8	198.7
678.0	197.9
678.2	196.6
678.4	195.4
678.6	194.4
678.8	192.9
679.0	190.9
679.2	189.0
679.4	187.6
679.6	186.5
679.8	185.5
680.0	184.2
680.2	182.3
680.4	180.2
680.6	178.6
680.8	177.4
681.0	176.6
681.2	176.1
681.4	174.9
681.6	173.5
681.8	171.7
682.0	170.3
682.2	168.5
682.4	167.1
682.6	165.6
682.8	164.4
683.0	163.7
683.2	163.2
683.4	161.6
683.6	159.8
683.8	157.8
684.0	156.3
684.2	155.2
684.4	154.5
684.6	153.6
684.8	152.4
685.0	151.0
685.2	149.8
685.4	148.9
685.6	148.2
685.8	147.4
686.0	146.5
686.2	145.1
686.4	143.3
686.6	142.0
686.8	140.7
687.0	139.7
687.2	138.8
687.4	138.3
687.6	136.8
687.8	135.5
688.0	134.1
688.2	132.8
688.4	131.9
688.6	131.3
688.8	130.7
689.0	129.9
689.2	129.3
689.4	128.0
689.6	127.2
689.8	126.1
690.0	125.4
690.2	124.5
690.4	123.7
690.6	122.2
690.8	120.9
691.0	120.4
691.2	119.7
691.4	119.3
691.6	118.6
691.8	117.3
692.0	115.9
692.2	115.1
692.4	114.0
692.6	113.3
692.8	112.4
693.0	111.1
693.2	110.2
693.4	109.1
693.6	108.3
693.8	107.7
694.0	107.3
694.2	106.7
694.4	106.4
694.6	105.4
694.8	104.8
695.0	104.0
695.2	103.5
695.4	102.5
695.6	101.5
695.8	100.5
696.0	99.80
696.2	98.91
696.4	98.69
696.6	97.77
696.8	97.19
697.0	96.69
697.2	96.28
697.4	95.41
697.6	94.73
697.8	93.68
698.0	92.78
698.2	92.02
698.4	91.84
698.6	90.85
698.8	90.26
699.0	89.78
699.2	89.45
699.4	89.29
699.6	89.04
699.8	87.57
700.0	86.67
700.2	86.40
700.4	85.97
700.6	86.04
700.8	85.76
701.0	84.94
701.2	84.31
701.4	83.79
701.6	83.08
701.8	81.85
702.0	80.84
702.2	80.10
702.4	79.78
702.6	79.26
702.8	79.16
703.0	78.14
703.2	77.56
703.4	77.06
703.6	76.81
703.8	76.17
704.0	75.63
704.2	74.98
704.4	74.77
704.6	74.34
704.8	74.21
705.0	73.49
705.2	72.66
705.4	72.17
705.6	71.68
705.8	71.14
706.0	70.49
706.2	69.65
706.4	69.02
706.6	68.93
706.8	68.61
707.0	68.58
707.2	68.01
707.4	67.34
707.6	66.66
707.8	66.02
708.0	65.74
708.2	65.55
708.4	65.37
708.6	64.94
708.8	64.49
709.0	63.66
709.2	63.08
709.4	62.36
709.6	62.18
709.8	62.14
710.0	62.01
710.2	61.67
710.4	60.83
710.6	60.21
710.8	59.79
711.0	59.35
711.2	58.89
711.4	58.43
711.6	57.75
711.8	57.59
712.0	57.35
712.2	56.82
712.4	56.67
712.6	56.20
712.8	55.55
713.0	55.08
713.2	54.65
713.4	54.15
713.6	54.08
713.8	53.56
714.0	53.00
714.2	52.57
714.4	52.27
714.6	52.15
714.8	51.90
715.0	51.46
715.2	51.12
715.4	50.68
715.6	50.04
715.8	49.79
716.0	49.52
716.2	49.19
716.4	48.89
716.6	48.44
716.8	47.93
717.0	47.50
717.2	47.23
717.4	46.79
717.6	46.42
717.8	46.04
718.0	45.74
718.2	45.28
718.4	44.89
718.6	44.50
718.8	44.28
719.0	44.06
719.2	43.68
719.4	43.40
719.6	43.01
719.8	42.68
720.0	42.38
720.2	42.12
720.4	41.46
720.6	41.27
720.8	41.09
721.0	40.84
721.2	40.48
721.4	40.06
721.6	39.47
721.8	39.23
722.0	38.82
722.2	38.66
722.4	38.53
722.6	37.95
722.8	37.61
723.0	37.36
723.2	37.10
723.4	37.05
723.6	36.88
723.8	36.28
724.0	35.72
724.2	35.19
724.4	35.03
724.6	34.78
724.8	34.78
725.0	34.71
725.2	34.65
725.4	34.37
725.6	34.06
725.8	33.56
726.0	33.17
726.2	32.69
726.4	32.63
726.6	32.38
726.8	32.08
727.0	31.83
727.2	31.62
727.4	31.39
727.6	31.27
727.8	31.05
728.0	30.87
728.2	30.62
728.4	30.33
728.6	29.91
728.8	29.43
729.0	29.13
729.2	28.96
729.4	28.74
729.6	28.59
729.8	28.46
730.0	28.36
730.2	28.24
730.4	27.95
730.6	27.49
730.8	26.83
731.0	26.60
731.2	26.43
731.4	26.30
731.6	26.31
731.8	26.25
732.0	25.86
732.2	25.86
732.4	25.49
732.6	25.13
732.8	24.88
733.0	24.79
733.2	24.66
733.4	24.56
733.6	24.30
733.8	24.16
734.0	23.85
734.2	23.62
734.4	23.35
734.6	22.96
734.8	22.85
735.0	22.78
735.2	22.71
735.4	22.64
735.6	22.46
735.8	22.24
736.0	22.24
736.2	21.98
736.4	21.83
736.6	21.72
736.8	21.68
737.0	21.47
737.2	21.36
737.4	21.04
737.6	20.80
737.8	20.51
738.0	20.40
738.2	20.15
738.4	20.16
738.6	20.13
738.8	20.14
739.0	20.10
739.2	19.78
739.4	19.61
739.6	19.47
739.8	19.15
740.0	18.76
740.2	18.34
740.4	17.99
740.6	18.01
740.8	18.12
741.0	18.23
741.2	18.19
741.4	18.08
741.6	17.85
741.8	17.54
742.0	17.30
742.2	17.09
742.4	17.03
742.6	17.03
742.8	16.88
743.0	16.82
743.2	16.70
743.4	16.48
743.6	16.48
743.8	16.32
744.0	16.21
744.2	16.21
744.4	15.97
744.6	15.82
744.8	15.82
745.0	15.73
745.2	15.67
745.4	15.52
745.6	15.22
745.8	14.89
746.0	14.78
746.2	14.74
746.4	14.74
746.6	14.81
746.8	14.77
747.0	14.64
747.2	14.52
747.4	14.39
747.6	14.18
747.8	14.12
748.0	13.93
748.2	13.94
748.4	13.82
748.6	13.75
748.8	13.54
749.0	13.41
749.2	13.38
749.4	13.30
749.6	13.16
749.8	13.04
750.0	12.80
750.2	12.58
750.4	12.67
750.6	12.60
750.8	12.67
751.0	12.68
751.2	12.59
751.4	12.41
751.6	12.43
751.8	12.42
752.0	12.28
752.2	12.09
752.4	11.92
752.6	11.75
752.8	11.70
753.0	11.71
753.2	11.59
753.4	11.53
753.6	11.42
753.8	11.35
754.0	11.21
754.2	11.17
754.4	11.17
754.6	11.06
754.8	10.98
755.0	11.02
755.2	10.97
755.4	10.90
755.6	10.86
755.8	10.67
756.0	10.57
756.2	10.51
756.4	10.40
756.6	10.32
756.8	10.22
757.0	10.06
757.2	10.01
757.4	10.03
757.6	9.977
757.8	9.951
758.0	9.810
758.2	9.616
758.4	9.510
758.6	9.504
758.8	9.387
759.0	9.279
759.2	9.184
759.4	9.174
759.6	9.250
759.8	9.271
760.0	9.247
760.2	9.207
760.4	9.082
760.6	8.969
760.8	8.924
761.0	8.881
761.2	8.869
761.4	8.802
761.6	8.601
761.8	8.416
762.0	8.253
762.2	8.282
762.4	8.332
762.6	8.296
762.8	8.229
763.0	8.308
763.2	8.214
763.4	8.240
763.6	8.167
763.8	7.901
764.0	7.830
764.2	7.788
764.4	7.728
764.6	7.705
764.8	7.668
765.0	7.539
765.2	7.539
765.4	7.359
765.6	7.270
765.8	7.234
766.0	7.227
766.2	7.273
766.4	7.233
766.6	7.077
766.8	6.936
767.0	6.964
767.2	7.011
767.4	7.078
767.6	7.035
767.8	6.971
768.0	6.975
768.2	6.981
768.4	6.961
768.6	6.829
768.8	6.652
769.0	6.546
769.2	6.560
769.4	6.651
769.6	6.752
769.8	6.726
770.0	6.555
770.2	6.424
770.4	6.312
770.6	6.363
770.8	6.454
771.0	6.430
771.2	6.352
771.4	6.266
771.6	6.196
771.8	6.144
772.0	6.121
772.2	6.051
772.4	6.019
772.6	6.023
772.8	5.949
773.0	5.945
773.2	5.904
773.4	5.803
773.6	5.732
773.8	5.768
774.0	5.720
774.2	5.766
774.4	5.829
774.6	5.814
774.8	5.728
775.0	5.696
775.2	5.602
775.4	5.507
775.6	5.492
775.8	5.446
776.0	5.359
776.2	5.384
776.4	5.397
776.6	5.326
776.8	5.336
777.0	5.284
777.2	5.162
777.4	5.147
777.6	5.202
777.8	5.145
778.0	5.266
778.2	5.183
778.4	5.118
778.6	4.996
778.8	5.003
779.0	4.928
779.2	4.914
779.4	4.854
779.6	4.872
779.8	4.859
780.0	4.968
780.2	4.920
780.4	4.826
780.6	4.764
780.8	4.696
781.0	4.692
781.2	4.771
781.4	4.735
781.6	4.686
781.8	4.653
782.0	4.623
782.2	4.665
782.4	4.752
782.6	4.742
782.8	4.571
783.0	4.432
783.2	4.327
783.4	4.341
783.6	4.394
783.8	4.439
784.0	4.420
784.2	4.402
784.4	4.425
784.6	4.401
784.8	4.369
785.0	4.295
785.2	4.309
785.4	4.302
785.6	4.354
785.8	4.376
786.0	4.414
786.2	4.403
786.4	4.327
786.6	4.224
786.8	4.181
787.0	4.154
787.2	4.163
787.4	4.138
787.6	4.092
787.8	4.102
788.0	4.176
788.2	4.180
788.4	4.084
788.6	4.011
788.8	3.929
789.0	3.899
789.2	3.901
789.4	3.814
789.6	3.816
789.8	3.903
790.0	3.937
790.2	4.002
790.4	4.020
790.6	3.958
790.8	3.978
791.0	3.935
791.2	3.911
791.4	3.878
791.6	3.772
791.8	3.741
792.0	3.789
792.2	3.866
792.4	3.963
792.6	3.913
792.8	3.809
793.0	3.730
793.2	3.740
793.4	3.821
793.6	3.847
793.8	3.851
794.0	3.835
794.2	3.751
794.4	3.829
794.6	3.861
794.8	3.801
795.0	3.813
795.2	3.714
795.4	3.602
795.6	3.633
795.8	3.612
796.0	3.641
796.2	3.638
796.4	3.604
796.6	3.585
796.8	3.665
797.0	3.771
797.2	3.873
797.4	3.880
797.6	3.856
797.8	3.759
798.0	3.748
798.2	3.786
798.4	3.771
798.6	3.757
798.8	3.785
799.0	3.776
799.2	3.766
799.4	3.831
799.6	3.873
799.8	3.888
800.0	3.936
800.2	3.953
800.4	3.965
800.6	3.969
800.8	4.088
801.0	4.142
801.2	4.196
801.4	4.185
801.6	4.269
801.8	4.285
802.0	4.407
802.2	4.462
802.4	4.508
802.6	4.585
802.8	4.732
803.0	4.809
803.2	4.928
803.4	5.010
803.6	5.117
803.8	5.268
804.0	5.365
804.2	5.456
804.4	5.588
804.6	5.644
804.8	5.810
805.0	5.980
805.2	6.205
805.4	6.462
805.6	6.778
805.8	6.860
806.0	7.008
806.2	7.054
806.4	7.250
806.6	7.531
806.8	7.921
807.0	8.151
807.2	8.336
807.4	8.411
807.6	8.554
807.8	8.714
808.0	8.919
808.2	9.233
808.4	9.545
808.6	9.893
808.8	10.18
809.0	10.39
809.2	10.65
809.4	10.93
809.6	11.34
809.8	11.55
810.0	11.95
810.2	12.25
810.4	12.76
810.6	13.07
810.8	13.51
811.0	13.69
811.2	13.97
811.4	14.17
811.6	14.59
811.8	14.80
812.0	15.21
812.2	15.63
812.4	16.08
812.6	16.34
812.8	16.81
813.0	17.09
813.2	17.54
813.4	17.96
813.6	18.20
813.8	18.41
814.0	19.00
814.2	19.40
814.4	19.92
814.6	20.31
814.8	20.44
815.0	20.99
815.2	21.39
815.4	21.56
815.6	21.84
815.8	22.12
816.0	22.42
816.2	23.07
816.4	23.46
816.6	23.98
816.8	24.48
817.0	24.91
817.2	25.19
817.4	25.30
817.6	25.41
817.8	25.62
818.0	25.89
818.2	26.47
818.4	27.07
818.6	27.43
818.8	27.81
819.0	28.09
819.2	28.17
819.4	28.42
819.6	28.53
819.8	28.53
820.0	28.38

