Sample:	'20211010A(EM)
File name:	G-NI-CHO 430V.FDS
Run date:	'16:41:48, 03/23/2023
Operator:	Administrator
Comment:	'

Instrument
Model:	F-4700 FL Spectrophotometer
Serial number:	2019-001
ROM Version:	5J24010 00

Instrument parameters
Measurement type:	Wavelength scan
Scan mode:	Emission
Data mode:	Fluorescence
EX WL:	410.0 nm
EM  Start WL:	420.0 nm
EM  End WL:	820.0 nm
Scan speed:	1200 nm/min
Delay:	0.0 s
EX Slit:	10.0 nm
EM Slit:	10.0 nm
PMT Voltage:	430 V
Response:	0.002 s
Corrected spectra:	Off
Shutter control:	On

Processing performed
Savitsky-Golay smoothed
Smoothing order:	3
Number of points:	7
Number of times:	1

Peak integration
Integration method:	Rectangular
Sensitivity:	1
Threshold:	1.000

Peaks
No.	Start(nm)	Apex(nm)	End(nm)	Height(Data)	Valley(nm)	Valley(Data)
1	429.0	532.2	533.0	9291	533.0	9280
2	533.0	536.0	793.8	9327	793.8	4.805

Data points
nm	Data
420.0	363.2
420.2	345.6
420.4	324.7
420.6	302.4
420.8	280.9
421.0	261.9
421.2	246.1
421.4	230.4
421.6	215.6
421.8	201.0
422.0	186.9
422.2	172.6
422.4	160.2
422.6	148.4
422.8	137.2
423.0	127.4
423.2	118.7
423.4	109.9
423.6	101.8
423.8	94.12
424.0	87.20
424.2	80.40
424.4	74.20
424.6	68.09
424.8	63.02
425.0	58.35
425.2	54.69
425.4	50.77
425.6	47.46
425.8	44.19
426.0	41.32
426.2	38.45
426.4	36.37
426.6	34.37
426.8	32.82
427.0	31.32
427.2	30.09
427.4	29.09
427.6	28.15
427.8	27.28
428.0	26.83
428.2	26.25
428.4	26.04
428.6	25.84
428.8	25.64
429.0	25.49
429.2	25.71
429.4	25.83
429.6	26.28
429.8	26.66
430.0	26.74
430.2	26.95
430.4	27.10
430.6	27.21
430.8	27.76
431.0	28.41
431.2	28.66
431.4	29.11
431.6	29.21
431.8	29.48
432.0	29.81
432.2	30.30
432.4	30.63
432.6	31.13
432.8	31.60
433.0	32.29
433.2	32.47
433.4	32.54
433.6	33.06
433.8	33.78
434.0	34.74
434.2	35.52
434.4	35.98
434.6	36.27
434.8	36.97
435.0	37.61
435.2	38.31
435.4	39.04
435.6	39.67
435.8	40.44
436.0	41.30
436.2	42.12
436.4	42.93
436.6	43.42
436.8	43.89
437.0	44.43
437.2	45.12
437.4	45.70
437.6	46.51
437.8	47.14
438.0	48.38
438.2	49.46
438.4	50.65
438.6	51.72
438.8	52.52
439.0	53.44
439.2	54.32
439.4	54.90
439.6	56.03
439.8	57.04
440.0	57.76
440.2	59.22
440.4	60.32
440.6	61.50
440.8	63.01
441.0	63.90
441.2	64.70
441.4	65.98
441.6	66.72
441.8	67.92
442.0	69.10
442.2	70.07
442.4	71.06
442.6	72.39
442.8	73.48
443.0	75.01
443.2	76.46
443.4	77.84
443.6	79.00
443.8	80.08
444.0	81.11
444.2	82.48
444.4	83.75
444.6	85.30
444.8	86.64
445.0	88.10
445.2	90.15
445.4	91.87
445.6	92.91
445.8	93.85
446.0	94.52
446.2	96.08
446.4	98.10
446.6	99.81
446.8	101.4
447.0	102.6
447.2	103.3
447.4	104.7
447.6	106.0
447.8	108.1
448.0	110.6
448.2	112.9
448.4	113.8
448.6	115.0
448.8	116.3
449.0	118.1
449.2	120.2
449.4	122.0
449.6	123.1
449.8	124.8
450.0	126.6
450.2	128.8
450.4	130.6
450.6	132.1
450.8	133.4
451.0	135.6
451.2	137.5
451.4	139.4
451.6	141.5
451.8	143.8
452.0	145.6
452.2	147.6
452.4	149.7
452.6	150.6
452.8	152.4
453.0	154.6
453.2	157.6
453.4	160.3
453.6	163.5
453.8	165.4
454.0	167.6
454.2	170.2
454.4	173.1
454.6	175.8
454.8	178.7
455.0	181.5
455.2	184.2
455.4	187.1
455.6	190.0
455.8	193.5
456.0	197.1
456.2	200.8
456.4	204.0
456.6	207.3
456.8	210.9
457.0	214.0
457.2	217.7
457.4	220.7
457.6	224.0
457.8	228.5
458.0	233.0
458.2	237.5
458.4	242.2
458.6	245.3
458.8	249.8
459.0	254.9
459.2	259.7
459.4	265.2
459.6	270.9
459.8	276.0
460.0	282.0
460.2	287.7
460.4	293.2
460.6	299.3
460.8	305.2
461.0	311.2
461.2	317.9
461.4	325.0
461.6	332.4
461.8	338.9
462.0	344.8
462.2	351.0
462.4	358.0
462.6	365.1
462.8	373.0
463.0	381.0
463.2	389.3
463.4	396.8
463.6	404.1
463.8	411.9
464.0	420.3
464.2	431.1
464.4	440.6
464.6	449.4
464.8	459.2
465.0	469.8
465.2	479.1
465.4	490.8
465.6	500.6
465.8	511.3
466.0	522.4
466.2	533.7
466.4	544.1
466.6	555.8
466.8	565.9
467.0	575.9
467.2	586.2
467.4	598.3
467.6	611.7
467.8	625.1
468.0	638.1
468.2	650.2
468.4	661.9
468.6	675.0
468.8	689.3
469.0	705.4
469.2	720.2
469.4	735.0
469.6	748.6
469.8	763.6
470.0	779.6
470.2	797.0
470.4	812.4
470.6	828.7
470.8	843.3
471.0	859.0
471.2	874.8
471.4	890.5
471.6	907.5
471.8	924.0
472.0	938.8
472.2	956.8
472.4	973.5
472.6	991.3
472.8	1010
473.0	1026
473.2	1042
473.4	1061
473.6	1079
473.8	1099
474.0	1118
474.2	1138
474.4	1159
474.6	1180
474.8	1201
475.0	1222
475.2	1241
475.4	1262
475.6	1283
475.8	1305
476.0	1328
476.2	1348
476.4	1367
476.6	1388
476.8	1409
477.0	1431
477.2	1454
477.4	1476
477.6	1498
477.8	1521
478.0	1544
478.2	1567
478.4	1589
478.6	1612
478.8	1636
479.0	1662
479.2	1687
479.4	1712
479.6	1735
479.8	1759
480.0	1784
480.2	1812
480.4	1837
480.6	1863
480.8	1888
481.0	1914
481.2	1939
481.4	1967
481.6	1992
481.8	2019
482.0	2046
482.2	2073
482.4	2097
482.6	2123
482.8	2147
483.0	2171
483.2	2197
483.4	2225
483.6	2255
483.8	2287
484.0	2318
484.2	2345
484.4	2373
484.6	2399
484.8	2430
485.0	2462
485.2	2495
485.4	2525
485.6	2555
485.8	2584
486.0	2612
486.2	2639
486.4	2670
486.6	2699
486.8	2730
487.0	2763
487.2	2791
487.4	2820
487.6	2852
487.8	2883
488.0	2914
488.2	2945
488.4	2975
488.6	3008
488.8	3038
489.0	3070
489.2	3104
489.4	3139
489.6	3171
489.8	3209
490.0	3243
490.2	3279
490.4	3315
490.6	3350
490.8	3386
491.0	3420
491.2	3450
491.4	3484
491.6	3515
491.8	3550
492.0	3587
492.2	3619
492.4	3652
492.6	3685
492.8	3719
493.0	3756
493.2	3791
493.4	3828
493.6	3868
493.8	3905
494.0	3940
494.2	3975
494.4	4006
494.6	4043
494.8	4083
495.0	4122
495.2	4160
495.4	4203
495.6	4240
495.8	4282
496.0	4321
496.2	4354
496.4	4384
496.6	4419
496.8	4454
497.0	4494
497.2	4534
497.4	4573
497.6	4608
497.8	4645
498.0	4682
498.2	4720
498.4	4756
498.6	4794
498.8	4831
499.0	4870
499.2	4911
499.4	4952
499.6	4992
499.8	5032
500.0	5070
500.2	5109
500.4	5149
500.6	5192
500.8	5238
501.0	5281
501.2	5323
501.4	5356
501.6	5385
501.8	5423
502.0	5459
502.2	5499
502.4	5540
502.6	5575
502.8	5611
503.0	5650
503.2	5688
503.4	5725
503.6	5764
503.8	5807
504.0	5852
504.2	5898
504.4	5939
504.6	5978
504.8	6016
505.0	6054
505.2	6092
505.4	6135
505.6	6171
505.8	6217
506.0	6255
506.2	6296
506.4	6336
506.6	6374
506.8	6404
507.0	6439
507.2	6471
507.4	6511
507.6	6550
507.8	6589
508.0	6622
508.2	6650
508.4	6677
508.6	6714
508.8	6757
509.0	6803
509.2	6849
509.4	6887
509.6	6922
509.8	6962
510.0	7000
510.2	7034
510.4	7066
510.6	7100
510.8	7139
511.0	7174
511.2	7209
511.4	7244
511.6	7275
511.8	7309
512.0	7345
512.2	7374
512.4	7404
512.6	7438
512.8	7465
513.0	7496
513.2	7529
513.4	7556
513.6	7583
513.8	7619
514.0	7655
514.2	7695
514.4	7735
514.6	7769
514.8	7802
515.0	7835
515.2	7869
515.4	7898
515.6	7926
515.8	7955
516.0	7985
516.2	8015
516.4	8041
516.6	8068
516.8	8095
517.0	8117
517.2	8142
517.4	8169
517.6	8196
517.8	8224
518.0	8246
518.2	8266
518.4	8286
518.6	8309
518.8	8335
519.0	8358
519.2	8384
519.4	8405
519.6	8427
519.8	8449
520.0	8474
520.2	8506
520.4	8539
520.6	8568
520.8	8592
521.0	8611
521.2	8630
521.4	8646
521.6	8662
521.8	8678
522.0	8696
522.2	8720
522.4	8736
522.6	8753
522.8	8769
523.0	8781
523.2	8792
523.4	8811
523.6	8829
523.8	8847
524.0	8863
524.2	8885
524.4	8896
524.6	8921
524.8	8941
525.0	8958
525.2	8978
525.4	8992
525.6	9003
525.8	9020
526.0	9024
526.2	9042
526.4	9061
526.6	9074
526.8	9086
527.0	9095
527.2	9105
527.4	9120
527.6	9126
527.8	9130
528.0	9129
528.2	9137
528.4	9146
528.6	9156
528.8	9162
529.0	9169
529.2	9179
529.4	9191
529.6	9199
529.8	9208
530.0	9214
530.2	9226
530.4	9236
530.6	9250
530.8	9251
531.0	9263
531.2	9269
531.4	9281
531.6	9287
531.8	9290
532.0	9287
532.2	9291
532.4	9288
532.6	9285
532.8	9281
533.0	9280
533.2	9285
533.4	9286
533.6	9292
533.8	9292
534.0	9294
534.2	9301
534.4	9304
534.6	9305
534.8	9307
535.0	9308
535.2	9305
535.4	9307
535.6	9315
535.8	9324
536.0	9327
536.2	9326
536.4	9322
536.6	9317
536.8	9317
537.0	9310
537.2	9304
537.4	9301
537.6	9300
537.8	9295
538.0	9293
538.2	9282
538.4	9276
538.6	9272
538.8	9266
539.0	9263
539.2	9262
539.4	9260
539.6	9259
539.8	9252
540.0	9240
540.2	9232
540.4	9227
540.6	9224
540.8	9222
541.0	9221
541.2	9212
541.4	9202
541.6	9195
541.8	9187
542.0	9183
542.2	9177
542.4	9169
542.6	9156
542.8	9146
543.0	9136
543.2	9127
543.4	9114
543.6	9104
543.8	9095
544.0	9086
544.2	9076
544.4	9067
544.6	9057
544.8	9046
545.0	9043
545.2	9034
545.4	9023
545.6	9013
545.8	9005
546.0	8995
546.2	8993
546.4	8983
546.6	8966
546.8	8951
547.0	8936
547.2	8921
547.4	8910
547.6	8891
547.8	8878
548.0	8864
548.2	8844
548.4	8827
548.6	8811
548.8	8797
549.0	8792
549.2	8782
549.4	8764
549.6	8746
549.8	8735
550.0	8728
550.2	8722
550.4	8715
550.6	8697
550.8	8680
551.0	8665
551.2	8645
551.4	8628
551.6	8613
551.8	8598
552.0	8585
552.2	8567
552.4	8547
552.6	8523
552.8	8505
553.0	8487
553.2	8472
553.4	8449
553.6	8431
553.8	8412
554.0	8395
554.2	8375
554.4	8359
554.6	8341
554.8	8329
555.0	8319
555.2	8302
555.4	8287
555.6	8268
555.8	8253
556.0	8238
556.2	8222
556.4	8201
556.6	8179
556.8	8159
557.0	8136
557.2	8116
557.4	8099
557.6	8080
557.8	8061
558.0	8035
558.2	8008
558.4	7984
558.6	7966
558.8	7954
559.0	7940
559.2	7919
559.4	7901
559.6	7878
559.8	7861
560.0	7847
560.2	7836
560.4	7822
560.6	7803
560.8	7778
561.0	7753
561.2	7733
561.4	7716
561.6	7695
561.8	7671
562.0	7647
562.2	7622
562.4	7606
562.6	7585
562.8	7562
563.0	7535
563.2	7508
563.4	7479
563.6	7456
563.8	7434
564.0	7409
564.2	7387
564.4	7366
564.6	7344
564.8	7326
565.0	7304
565.2	7284
565.4	7265
565.6	7243
565.8	7226
566.0	7205
566.2	7186
566.4	7163
566.6	7137
566.8	7116
567.0	7097
567.2	7076
567.4	7061
567.6	7041
567.8	7019
568.0	6993
568.2	6964
568.4	6934
568.6	6903
568.8	6876
569.0	6852
569.2	6829
569.4	6806
569.6	6784
569.8	6760
570.0	6735
570.2	6710
570.4	6693
570.6	6670
570.8	6649
571.0	6626
571.2	6606
571.4	6585
571.6	6569
571.8	6548
572.0	6527
572.2	6505
572.4	6484
572.6	6462
572.8	6434
573.0	6405
573.2	6378
573.4	6349
573.6	6326
573.8	6301
574.0	6275
574.2	6249
574.4	6225
574.6	6201
574.8	6177
575.0	6149
575.2	6129
575.4	6107
575.6	6089
575.8	6073
576.0	6051
576.2	6029
576.4	6010
576.6	5994
576.8	5971
577.0	5946
577.2	5922
577.4	5892
577.6	5868
577.8	5849
578.0	5824
578.2	5801
578.4	5780
578.6	5754
578.8	5729
579.0	5703
579.2	5678
579.4	5650
579.6	5627
579.8	5603
580.0	5580
580.2	5559
580.4	5541
580.6	5515
580.8	5493
581.0	5471
581.2	5451
581.4	5429
581.6	5410
581.8	5387
582.0	5368
582.2	5346
582.4	5324
582.6	5302
582.8	5280
583.0	5256
583.2	5234
583.4	5209
583.6	5191
583.8	5167
584.0	5144
584.2	5118
584.4	5094
584.6	5071
584.8	5048
585.0	5023
585.2	5004
585.4	4982
585.6	4965
585.8	4948
586.0	4926
586.2	4903
586.4	4881
586.6	4859
586.8	4837
587.0	4820
587.2	4800
587.4	4779
587.6	4757
587.8	4734
588.0	4711
588.2	4691
588.4	4671
588.6	4650
588.8	4630
589.0	4606
589.2	4584
589.4	4562
589.6	4542
589.8	4521
590.0	4500
590.2	4475
590.4	4453
590.6	4434
590.8	4415
591.0	4399
591.2	4379
591.4	4358
591.6	4341
591.8	4325
592.0	4306
592.2	4286
592.4	4265
592.6	4243
592.8	4223
593.0	4204
593.2	4181
593.4	4160
593.6	4141
593.8	4125
594.0	4109
594.2	4087
594.4	4066
594.6	4042
594.8	4019
595.0	4000
595.2	3981
595.4	3960
595.6	3943
595.8	3927
596.0	3911
596.2	3896
596.4	3879
596.6	3859
596.8	3840
597.0	3822
597.2	3800
597.4	3783
597.6	3766
597.8	3748
598.0	3732
598.2	3713
598.4	3691
598.6	3668
598.8	3648
599.0	3631
599.2	3617
599.4	3601
599.6	3580
599.8	3558
600.0	3541
600.2	3524
600.4	3507
600.6	3489
600.8	3472
601.0	3457
601.2	3444
601.4	3427
601.6	3409
601.8	3390
602.0	3372
602.2	3356
602.4	3339
602.6	3322
602.8	3308
603.0	3291
603.2	3274
603.4	3258
603.6	3238
603.8	3219
604.0	3201
604.2	3182
604.4	3169
604.6	3150
604.8	3133
605.0	3117
605.2	3100
605.4	3085
605.6	3071
605.8	3053
606.0	3037
606.2	3020
606.4	3005
606.6	2989
606.8	2972
607.0	2958
607.2	2944
607.4	2928
607.6	2912
607.8	2898
608.0	2882
608.2	2869
608.4	2854
608.6	2837
608.8	2817
609.0	2799
609.2	2781
609.4	2766
609.6	2751
609.8	2737
610.0	2720
610.2	2703
610.4	2689
610.6	2676
610.8	2663
611.0	2651
611.2	2637
611.4	2622
611.6	2606
611.8	2592
612.0	2577
612.2	2564
612.4	2552
612.6	2536
612.8	2521
613.0	2507
613.2	2494
613.4	2480
613.6	2466
613.8	2451
614.0	2434
614.2	2421
614.4	2406
614.6	2389
614.8	2373
615.0	2359
615.2	2345
615.4	2334
615.6	2321
615.8	2306
616.0	2291
616.2	2278
616.4	2268
616.6	2258
616.8	2245
617.0	2232
617.2	2219
617.4	2207
617.6	2195
617.8	2179
618.0	2165
618.2	2154
618.4	2142
618.6	2128
618.8	2116
619.0	2101
619.2	2090
619.4	2076
619.6	2062
619.8	2046
620.0	2031
620.2	2018
620.4	2006
620.6	1997
620.8	1987
621.0	1974
621.2	1961
621.4	1950
621.6	1940
621.8	1930
622.0	1919
622.2	1909
622.4	1897
622.6	1884
622.8	1872
623.0	1859
623.2	1848
623.4	1840
623.6	1830
623.8	1819
624.0	1806
624.2	1793
624.4	1781
624.6	1768
624.8	1757
625.0	1746
625.2	1735
625.4	1725
625.6	1713
625.8	1701
626.0	1688
626.2	1678
626.4	1667
626.6	1656
626.8	1646
627.0	1636
627.2	1627
627.4	1619
627.6	1610
627.8	1598
628.0	1587
628.2	1577
628.4	1567
628.6	1558
628.8	1549
629.0	1539
629.2	1529
629.4	1517
629.6	1506
629.8	1494
630.0	1484
630.2	1475
630.4	1466
630.6	1455
630.8	1446
631.0	1435
631.2	1426
631.4	1416
631.6	1409
631.8	1400
632.0	1391
632.2	1382
632.4	1371
632.6	1363
632.8	1357
633.0	1348
633.2	1341
633.4	1331
633.6	1323
633.8	1314
634.0	1307
634.2	1298
634.4	1289
634.6	1279
634.8	1271
635.0	1261
635.2	1255
635.4	1246
635.6	1237
635.8	1228
636.0	1220
636.2	1211
636.4	1203
636.6	1195
636.8	1186
637.0	1178
637.2	1171
637.4	1162
637.6	1155
637.8	1148
638.0	1141
638.2	1133
638.4	1127
638.6	1120
638.8	1113
639.0	1105
639.2	1098
639.4	1090
639.6	1084
639.8	1075
640.0	1068
640.2	1060
640.4	1052
640.6	1044
640.8	1037
641.0	1031
641.2	1026
641.4	1017
641.6	1011
641.8	1002
642.0	994.7
642.2	987.8
642.4	984.0
642.6	976.9
642.8	971.4
643.0	964.5
643.2	957.8
643.4	950.9
643.6	945.5
643.8	939.0
644.0	932.6
644.2	925.8
644.4	920.4
644.6	912.3
644.8	905.1
645.0	897.3
645.2	891.0
645.4	885.1
645.6	879.9
645.8	872.0
646.0	867.5
646.2	860.8
646.4	856.0
646.6	851.1
646.8	844.1
647.0	836.6
647.2	831.1
647.4	826.1
647.6	822.5
647.8	817.7
648.0	810.3
648.2	802.1
648.4	796.9
648.6	791.5
648.8	787.4
649.0	782.4
649.2	776.8
649.4	769.9
649.6	764.6
649.8	758.4
650.0	753.2
650.2	747.7
650.4	742.5
650.6	736.2
650.8	730.4
651.0	726.3
651.2	722.4
651.4	718.4
651.6	714.1
651.8	707.5
652.0	701.9
652.2	695.9
652.4	690.4
652.6	686.2
652.8	682.1
653.0	677.0
653.2	672.5
653.4	667.6
653.6	661.7
653.8	656.6
654.0	653.3
654.2	650.3
654.4	645.7
654.6	640.8
654.8	634.3
655.0	628.3
655.2	625.1
655.4	622.2
655.6	617.9
655.8	613.5
656.0	609.0
656.2	604.1
656.4	600.2
656.6	594.6
656.8	589.4
657.0	584.7
657.2	581.4
657.4	578.0
657.6	574.8
657.8	570.1
658.0	566.1
658.2	562.0
658.4	558.5
658.6	554.1
658.8	550.1
659.0	546.9
659.2	543.1
659.4	539.6
659.6	535.4
659.8	531.4
660.0	527.3
660.2	523.4
660.4	519.0
660.6	514.3
660.8	509.4
661.0	505.9
661.2	501.7
661.4	497.9
661.6	494.7
661.8	491.6
662.0	487.7
662.2	485.7
662.4	481.2
662.6	476.5
662.8	473.2
663.0	470.6
663.2	467.4
663.4	465.0
663.6	460.9
663.8	457.4
664.0	454.3
664.2	450.8
664.4	447.4
664.6	444.1
664.8	441.0
665.0	438.4
665.2	435.1
665.4	431.7
665.6	428.2
665.8	425.6
666.0	422.4
666.2	418.3
666.4	414.8
666.6	411.4
666.8	408.8
667.0	406.5
667.2	403.7
667.4	400.3
667.6	396.7
667.8	393.7
668.0	391.5
668.2	388.7
668.4	386.2
668.6	383.4
668.8	380.7
669.0	377.5
669.2	374.0
669.4	369.7
669.6	366.2
669.8	363.3
670.0	361.7
670.2	359.4
670.4	357.5
670.6	355.0
670.8	352.7
671.0	349.8
671.2	347.2
671.4	344.1
671.6	339.9
671.8	337.6
672.0	334.4
672.2	332.4
672.4	331.6
672.6	329.3
672.8	326.0
673.0	323.9
673.2	320.4
673.4	318.3
673.6	315.8
673.8	312.7
674.0	311.1
674.2	309.8
674.4	307.9
674.6	306.1
674.8	303.5
675.0	300.3
675.2	298.5
675.4	296.8
675.6	294.6
675.8	291.5
676.0	288.4
676.2	285.0
676.4	282.9
676.6	281.4
676.8	280.0
677.0	277.3
677.2	275.9
677.4	273.6
677.6	271.4
677.8	269.7
678.0	267.4
678.2	264.4
678.4	263.4
678.6	261.3
678.8	259.3
679.0	257.0
679.2	255.1
679.4	252.3
679.6	250.8
679.8	248.9
680.0	247.7
680.2	245.8
680.4	244.7
680.6	242.6
680.8	240.8
681.0	238.5
681.2	236.6
681.4	234.3
681.6	232.2
681.8	229.9
682.0	227.8
682.2	226.5
682.4	224.7
682.6	223.3
682.8	221.8
683.0	219.8
683.2	218.1
683.4	217.2
683.6	215.6
683.8	213.7
684.0	212.1
684.2	210.2
684.4	209.1
684.6	207.9
684.8	206.4
685.0	204.4
685.2	202.0
685.4	200.4
685.6	198.9
685.8	197.4
686.0	196.2
686.2	194.7
686.4	193.0
686.6	191.6
686.8	190.0
687.0	188.6
687.2	187.5
687.4	185.3
687.6	183.6
687.8	181.5
688.0	180.1
688.2	179.3
688.4	179.0
688.6	177.7
688.8	176.0
689.0	174.0
689.2	172.4
689.4	171.4
689.6	170.5
689.8	168.7
690.0	166.9
690.2	166.0
690.4	165.0
690.6	164.1
690.8	163.4
691.0	162.3
691.2	161.1
691.4	160.6
691.6	159.1
691.8	157.5
692.0	156.0
692.2	154.5
692.4	152.8
692.6	151.8
692.8	150.9
693.0	150.2
693.2	149.6
693.4	148.3
693.6	147.1
693.8	145.8
694.0	144.9
694.2	143.9
694.4	143.2
694.6	141.8
694.8	140.9
695.0	140.0
695.2	138.7
695.4	137.6
695.6	136.4
695.8	135.0
696.0	134.0
696.2	133.2
696.4	132.5
696.6	132.2
696.8	131.7
697.0	130.7
697.2	129.4
697.4	128.7
697.6	128.1
697.8	127.2
698.0	125.8
698.2	124.7
698.4	123.2
698.6	122.2
698.8	121.5
699.0	121.3
699.2	120.3
699.4	119.8
699.6	119.3
699.8	118.2
700.0	118.0
700.2	116.7
700.4	115.4
700.6	114.4
700.8	113.6
701.0	112.8
701.2	112.6
701.4	111.0
701.6	110.5
701.8	110.5
702.0	110.5
702.2	110.0
702.4	108.8
702.6	107.2
702.8	106.0
703.0	105.0
703.2	104.5
703.4	103.9
703.6	103.5
703.8	103.6
704.0	103.5
704.2	102.7
704.4	101.4
704.6	99.99
704.8	99.05
705.0	98.42
705.2	98.12
705.4	97.71
705.6	97.28
705.8	96.64
706.0	95.44
706.2	94.46
706.4	94.02
706.6	93.27
706.8	92.99
707.0	92.43
707.2	91.47
707.4	90.82
707.6	90.28
707.8	89.30
708.0	88.40
708.2	87.64
708.4	86.94
708.6	86.63
708.8	86.49
709.0	86.07
709.2	85.29
709.4	84.81
709.6	84.06
709.8	83.58
710.0	82.90
710.2	82.43
710.4	81.83
710.6	80.99
710.8	80.43
711.0	79.62
711.2	78.85
711.4	78.75
711.6	78.56
711.8	78.18
712.0	77.65
712.2	76.51
712.4	75.92
712.6	75.65
712.8	75.31
713.0	74.62
713.2	73.79
713.4	72.71
713.6	72.24
713.8	72.01
714.0	71.82
714.2	70.91
714.4	70.35
714.6	69.63
714.8	69.19
715.0	69.09
715.2	68.97
715.4	68.26
715.6	67.48
715.8	66.57
716.0	65.88
716.2	65.63
716.4	65.01
716.6	64.58
716.8	64.04
717.0	63.61
717.2	63.15
717.4	62.89
717.6	62.07
717.8	61.66
718.0	61.08
718.2	60.74
718.4	60.19
718.6	59.68
718.8	59.26
719.0	59.03
719.2	58.62
719.4	58.14
719.6	57.49
719.8	56.92
720.0	56.61
720.2	56.34
720.4	56.00
720.6	55.65
720.8	55.21
721.0	55.04
721.2	54.51
721.4	54.01
721.6	53.29
721.8	52.61
722.0	52.06
722.2	52.00
722.4	51.39
722.6	50.99
722.8	50.58
723.0	50.23
723.2	50.14
723.4	49.72
723.6	48.96
723.8	48.32
724.0	47.93
724.2	47.82
724.4	47.97
724.6	47.92
724.8	47.48
725.0	47.12
725.2	46.62
725.4	45.95
725.6	45.20
725.8	45.11
726.0	44.75
726.2	44.72
726.4	44.55
726.6	44.03
726.8	43.34
727.0	42.85
727.2	42.73
727.4	42.45
727.6	42.25
727.8	41.67
728.0	41.18
728.2	40.68
728.4	40.60
728.6	40.27
728.8	40.12
729.0	39.80
729.2	39.28
729.4	38.66
729.6	38.11
729.8	37.65
730.0	37.56
730.2	37.55
730.4	37.46
730.6	37.11
730.8	36.88
731.0	36.51
731.2	36.13
731.4	35.59
731.6	35.46
731.8	35.36
732.0	35.34
732.2	35.17
732.4	34.62
732.6	33.94
732.8	33.52
733.0	33.15
733.2	33.16
733.4	33.41
733.6	33.30
733.8	32.95
734.0	32.62
734.2	32.03
734.4	31.56
734.6	31.35
734.8	31.19
735.0	30.96
735.2	30.93
735.4	30.91
735.6	30.55
735.8	30.10
736.0	29.78
736.2	29.51
736.4	29.23
736.6	29.07
736.8	28.78
737.0	28.66
737.2	28.50
737.4	28.40
737.6	27.94
737.8	27.62
738.0	27.29
738.2	27.17
738.4	26.92
738.6	26.87
738.8	26.78
739.0	26.66
739.2	26.57
739.4	26.38
739.6	26.20
739.8	26.21
740.0	26.17
740.2	25.58
740.4	25.13
740.6	24.77
740.8	24.43
741.0	24.37
741.2	24.25
741.4	24.05
741.6	23.94
741.8	23.70
742.0	23.28
742.2	23.11
742.4	22.80
742.6	22.81
742.8	22.91
743.0	22.59
743.2	22.54
743.4	22.62
743.6	22.50
743.8	22.34
744.0	21.94
744.2	21.45
744.4	21.38
744.6	21.35
744.8	21.31
745.0	21.03
745.2	20.64
745.4	20.39
745.6	20.19
745.8	20.35
746.0	20.46
746.2	20.37
746.4	20.20
746.6	19.98
746.8	19.77
747.0	19.62
747.2	19.35
747.4	19.02
747.6	18.66
747.8	18.65
748.0	18.68
748.2	18.75
748.4	18.66
748.6	18.41
748.8	17.93
749.0	17.81
749.2	17.72
749.4	17.80
749.6	17.67
749.8	17.70
750.0	17.55
750.2	17.63
750.4	17.50
750.6	17.23
750.8	16.92
751.0	16.68
751.2	16.54
751.4	16.56
751.6	16.60
751.8	16.50
752.0	16.47
752.2	16.29
752.4	16.06
752.6	15.82
752.8	15.80
753.0	15.54
753.2	15.54
753.4	15.55
753.6	15.49
753.8	15.41
754.0	15.24
754.2	15.01
754.4	14.95
754.6	14.83
754.8	14.77
755.0	14.68
755.2	14.49
755.4	14.36
755.6	14.19
755.8	14.01
756.0	13.82
756.2	13.80
756.4	13.85
756.6	14.07
756.8	14.07
757.0	13.83
757.2	13.48
757.4	13.32
757.6	13.18
757.8	13.13
758.0	13.08
758.2	12.93
758.4	12.86
758.6	12.90
758.8	12.86
759.0	12.72
759.2	12.58
759.4	12.43
759.6	12.44
759.8	12.38
760.0	12.30
760.2	12.14
760.4	12.05
760.6	11.94
760.8	11.86
761.0	11.73
761.2	11.67
761.4	11.48
761.6	11.66
761.8	11.84
762.0	11.69
762.2	11.54
762.4	11.37
762.6	11.14
762.8	11.18
763.0	11.19
763.2	11.01
763.4	10.76
763.6	10.49
763.8	10.35
764.0	10.30
764.2	10.25
764.4	10.42
764.6	10.54
764.8	10.65
765.0	10.61
765.2	10.39
765.4	10.10
765.6	10.05
765.8	9.976
766.0	10.06
766.2	9.998
766.4	9.913
766.6	9.734
766.8	9.648
767.0	9.556
767.2	9.581
767.4	9.537
767.6	9.440
767.8	9.268
768.0	9.183
768.2	9.154
768.4	9.277
768.6	9.253
768.8	9.131
769.0	8.984
769.2	8.886
769.4	8.775
769.6	8.778
769.8	8.794
770.0	8.768
770.2	8.675
770.4	8.647
770.6	8.646
770.8	8.560
771.0	8.452
771.2	8.336
771.4	8.320
771.6	8.355
771.8	8.441
772.0	8.388
772.2	8.098
772.4	7.953
772.6	7.871
772.8	7.839
773.0	7.897
773.2	7.948
773.4	7.868
773.6	7.873
773.8	7.828
774.0	7.712
774.2	7.563
774.4	7.554
774.6	7.520
774.8	7.488
775.0	7.630
775.2	7.506
775.4	7.420
775.6	7.467
775.8	7.477
776.0	7.376
776.2	7.364
776.4	7.160
776.6	7.113
776.8	7.001
777.0	7.013
777.2	7.056
777.4	7.108
777.6	6.991
777.8	6.962
778.0	6.821
778.2	6.917
778.4	6.967
778.6	7.006
778.8	6.850
779.0	6.694
779.2	6.512
779.4	6.454
779.6	6.428
779.8	6.446
780.0	6.479
780.2	6.398
780.4	6.370
780.6	6.314
780.8	6.331
781.0	6.315
781.2	6.317
781.4	6.256
781.6	6.358
781.8	6.434
782.0	6.415
782.2	6.355
782.4	6.172
782.6	6.082
782.8	6.135
783.0	6.107
783.2	6.181
783.4	6.160
783.6	6.089
783.8	6.003
784.0	6.053
784.2	5.919
784.4	5.868
784.6	5.782
784.8	5.779
785.0	5.697
785.2	5.797
785.4	5.869
785.6	5.889
785.8	5.900
786.0	5.886
786.2	5.826
786.4	5.677
786.6	5.552
786.8	5.533
787.0	5.527
787.2	5.469
787.4	5.597
787.6	5.530
787.8	5.456
788.0	5.529
788.2	5.514
788.4	5.352
788.6	5.310
788.8	5.211
789.0	5.222
789.2	5.295
789.4	5.343
789.6	5.384
789.8	5.333
790.0	5.296
790.2	5.206
790.4	5.049
790.6	4.957
790.8	5.039
791.0	5.084
791.2	5.149
791.4	5.165
791.6	5.172
791.8	5.143
792.0	5.194
792.2	5.180
792.4	5.145
792.6	5.069
792.8	5.093
793.0	5.064
793.2	5.040
793.4	4.951
793.6	4.890
793.8	4.805
794.0	4.873
794.2	4.932
794.4	4.953
794.6	4.965
794.8	4.988
795.0	5.018
795.2	4.996
795.4	5.005
795.6	4.956
795.8	4.932
796.0	4.879
796.2	4.904
796.4	4.896
796.6	4.995
796.8	5.012
797.0	5.037
797.2	5.069
797.4	5.112
797.6	5.054
797.8	5.017
798.0	4.919
798.2	5.011
798.4	5.137
798.6	5.261
798.8	5.318
799.0	5.298
799.2	5.213
799.4	5.257
799.6	5.198
799.8	5.244
800.0	5.273
800.2	5.261
800.4	5.358
800.6	5.475
800.8	5.519
801.0	5.640
801.2	5.696
801.4	5.744
801.6	5.819
801.8	5.944
802.0	6.015
802.2	6.086
802.4	6.251
802.6	6.375
802.8	6.532
803.0	6.749
803.2	6.941
803.4	7.031
803.6	7.224
803.8	7.330
804.0	7.597
804.2	7.707
804.4	7.904
804.6	8.043
804.8	8.305
805.0	8.551
805.2	8.716
805.4	8.821
805.6	8.941
805.8	9.200
806.0	9.538
806.2	9.901
806.4	10.12
806.6	10.37
806.8	10.66
807.0	11.01
807.2	11.13
807.4	11.36
807.6	11.76
807.8	12.12
808.0	12.61
808.2	12.94
808.4	13.22
808.6	13.63
808.8	14.24
809.0	14.81
809.2	15.08
809.4	15.34
809.6	15.64
809.8	15.94
810.0	16.50
810.2	17.08
810.4	17.37
810.6	17.78
810.8	18.27
811.0	18.75
811.2	19.40
811.4	20.14
811.6	20.69
811.8	20.98
812.0	21.30
812.2	21.65
812.4	22.24
812.6	23.06
812.8	23.72
813.0	24.02
813.2	24.36
813.4	24.78
813.6	25.50
813.8	26.34
814.0	26.80
814.2	27.07
814.4	27.45
814.6	27.90
814.8	28.36
815.0	29.05
815.2	29.61
815.4	29.83
815.6	30.44
815.8	30.98
816.0	31.52
816.2	32.21
816.4	33.10
816.6	33.46
816.8	33.87
817.0	34.08
817.2	34.47
817.4	34.91
817.6	35.52
817.8	36.07
818.0	36.65
818.2	37.02
818.4	37.38
818.6	37.96
818.8	37.93
819.0	38.35
819.2	38.80
819.4	39.18
819.6	39.75
819.8	40.19
820.0	40.34

