Sample:	'20211010A(EM)
File name:	B-NI 10.FDS
Run date:	'11:21:09, 06/20/2023
Operator:	Administrator
Comment:	'

Instrument
Model:	F-4700 FL Spectrophotometer
Serial number:	2019-001
ROM Version:	5J24010 00

Instrument parameters
Measurement type:	Wavelength scan
Scan mode:	Emission
Data mode:	Fluorescence
EX WL:	350.0 nm
EM  Start WL:	370.0 nm
EM  End WL:	700.0 nm
Scan speed:	1200 nm/min
Delay:	0.0 s
EX Slit:	10.0 nm
EM Slit:	10.0 nm
PMT Voltage:	305 V
Response:	0.002 s
Corrected spectra:	Off
Shutter control:	On

Processing performed
Savitsky-Golay smoothed
Smoothing order:	3
Number of points:	7
Number of times:	1

Peak integration
Integration method:	Rectangular
Sensitivity:	1
Threshold:	1.000

Peaks
No.	Start(nm)	Apex(nm)	End(nm)	Height(Data)	Valley(nm)	Valley(Data)
1	370.0	458.2	458.8	1408	458.8	1400
2	458.8	460.4	462.0	1406	462.0	1399
3	462.0	463.0	700.0	1407	700.0	2.038

Data points
nm	Data
370.0	1.220
370.2	1.267
370.4	1.321
370.6	1.366
370.8	1.353
371.0	1.386
371.2	1.377
371.4	1.392
371.6	1.364
371.8	1.402
372.0	1.401
372.2	1.481
372.4	1.472
372.6	1.508
372.8	1.510
373.0	1.543
373.2	1.539
373.4	1.546
373.6	1.550
373.8	1.552
374.0	1.594
374.2	1.578
374.4	1.612
374.6	1.659
374.8	1.688
375.0	1.653
375.2	1.667
375.4	1.650
375.6	1.707
375.8	1.775
376.0	1.829
376.2	1.864
376.4	1.862
376.6	1.886
376.8	1.877
377.0	1.885
377.2	1.883
377.4	1.907
377.6	1.888
377.8	1.983
378.0	2.036
378.2	2.093
378.4	2.078
378.6	2.057
378.8	2.051
379.0	2.155
379.2	2.211
379.4	2.288
379.6	2.269
379.8	2.250
380.0	2.267
380.2	2.338
380.4	2.395
380.6	2.456
380.8	2.471
381.0	2.511
381.2	2.520
381.4	2.518
381.6	2.550
381.8	2.592
382.0	2.622
382.2	2.702
382.4	2.741
382.6	2.791
382.8	2.870
383.0	2.951
383.2	3.026
383.4	3.087
383.6	3.100
383.8	3.160
384.0	3.179
384.2	3.198
384.4	3.216
384.6	3.271
384.8	3.348
385.0	3.472
385.2	3.566
385.4	3.636
385.6	3.639
385.8	3.755
386.0	3.829
386.2	3.886
386.4	3.950
386.6	3.996
386.8	4.038
387.0	4.185
387.2	4.264
387.4	4.356
387.6	4.420
387.8	4.524
388.0	4.659
388.2	4.817
388.4	4.897
388.6	5.034
388.8	5.064
389.0	5.222
389.2	5.376
389.4	5.471
389.6	5.497
389.8	5.617
390.0	5.729
390.2	6.021
390.4	6.147
390.6	6.276
390.8	6.384
391.0	6.609
391.2	6.896
391.4	7.173
391.6	7.278
391.8	7.417
392.0	7.514
392.2	7.721
392.4	7.960
392.6	8.196
392.8	8.475
393.0	8.720
393.2	8.860
393.4	9.083
393.6	9.312
393.8	9.669
394.0	10.04
394.2	10.37
394.4	10.63
394.6	10.90
394.8	11.11
395.0	11.45
395.2	11.84
395.4	12.22
395.6	12.59
395.8	12.90
396.0	13.14
396.2	13.48
396.4	14.01
396.6	14.57
396.8	15.20
397.0	15.72
397.2	16.14
397.4	16.61
397.6	17.15
397.8	17.76
398.0	18.40
398.2	18.87
398.4	19.51
398.6	20.23
398.8	20.96
399.0	21.82
399.2	22.53
399.4	23.17
399.6	23.86
399.8	24.84
400.0	25.65
400.2	26.43
400.4	27.29
400.6	28.18
400.8	29.10
401.0	30.37
401.2	31.47
401.4	32.47
401.6	33.43
401.8	34.46
402.0	35.60
402.2	36.86
402.4	38.23
402.6	39.50
402.8	40.63
403.0	41.95
403.2	43.37
403.4	44.86
403.6	46.46
403.8	48.10
404.0	49.67
404.2	51.39
404.4	53.27
404.6	54.84
404.8	56.48
405.0	58.41
405.2	60.35
405.4	62.58
405.6	65.10
405.8	67.30
406.0	69.53
406.2	71.88
406.4	74.18
406.6	76.45
406.8	78.70
407.0	80.96
407.2	83.30
407.4	85.79
407.6	88.26
407.8	91.12
408.0	93.45
408.2	96.35
408.4	99.47
408.6	102.8
408.8	105.9
409.0	109.4
409.2	112.3
409.4	115.6
409.6	118.9
409.8	122.4
410.0	125.9
410.2	129.7
410.4	133.9
410.6	137.8
410.8	141.6
411.0	145.2
411.2	149.1
411.4	153.6
411.6	158.0
411.8	162.6
412.0	166.8
412.2	170.6
412.4	174.7
412.6	179.7
412.8	184.8
413.0	190.5
413.2	195.8
413.4	200.2
413.6	204.2
413.8	208.9
414.0	213.7
414.2	219.4
414.4	225.0
414.6	230.1
414.8	236.1
415.0	242.5
415.2	248.5
415.4	254.2
415.6	259.0
415.8	264.5
416.0	271.2
416.2	277.9
416.4	285.0
416.6	291.1
416.8	296.8
417.0	302.7
417.2	308.9
417.4	315.0
417.6	321.3
417.8	327.3
418.0	333.8
418.2	341.2
418.4	348.8
418.6	356.9
418.8	364.7
419.0	371.6
419.2	378.5
419.4	385.5
419.6	392.0
419.8	399.6
420.0	406.9
420.2	413.6
420.4	420.1
420.6	426.5
420.8	433.7
421.0	442.4
421.2	450.6
421.4	459.3
421.6	468.5
421.8	476.2
422.0	484.4
422.2	492.6
422.4	499.0
422.6	506.9
422.8	515.5
423.0	524.3
423.2	532.7
423.4	541.0
423.6	548.1
423.8	555.7
424.0	562.6
424.2	570.8
424.4	578.7
424.6	586.8
424.8	596.0
425.0	605.0
425.2	613.5
425.4	621.8
425.6	629.0
425.8	637.3
426.0	646.4
426.2	653.9
426.4	662.5
426.6	670.6
426.8	678.1
427.0	687.2
427.2	697.5
427.4	705.2
427.6	713.7
427.8	719.6
428.0	726.9
428.2	734.7
428.4	745.1
428.6	755.5
428.8	765.0
429.0	772.5
429.2	780.8
429.4	788.1
429.6	795.7
429.8	804.2
430.0	811.6
430.2	820.4
430.4	829.6
430.6	838.7
430.8	846.5
431.0	853.2
431.2	859.5
431.4	866.7
431.6	874.0
431.8	883.9
432.0	892.9
432.2	900.1
432.4	908.6
432.6	916.6
432.8	924.3
433.0	930.4
433.2	935.0
433.4	939.5
433.6	948.1
433.8	958.8
434.0	969.8
434.2	977.8
434.4	983.3
434.6	988.4
434.8	994.6
435.0	1001
435.2	1006
435.4	1014
435.6	1021
435.8	1028
436.0	1035
436.2	1042
436.4	1049
436.6	1059
436.8	1068
437.0	1073
437.2	1077
437.4	1083
437.6	1089
437.8	1096
438.0	1103
438.2	1108
438.4	1113
438.6	1121
438.8	1127
439.0	1133
439.2	1137
439.4	1142
439.6	1147
439.8	1152
440.0	1156
440.2	1162
440.4	1167
440.6	1173
440.8	1177
441.0	1184
441.2	1192
441.4	1199
441.6	1204
441.8	1208
442.0	1210
442.2	1215
442.4	1220
442.6	1226
442.8	1229
443.0	1231
443.2	1233
443.4	1238
443.6	1242
443.8	1247
444.0	1249
444.2	1252
444.4	1256
444.6	1262
444.8	1269
445.0	1274
445.2	1279
445.4	1282
445.6	1283
445.8	1287
446.0	1290
446.2	1293
446.4	1298
446.6	1302
446.8	1306
447.0	1311
447.2	1313
447.4	1314
447.6	1313
447.8	1314
448.0	1318
448.2	1324
448.4	1331
448.6	1337
448.8	1339
449.0	1337
449.2	1337
449.4	1336
449.6	1340
449.8	1346
450.0	1352
450.2	1354
450.4	1354
450.6	1351
450.8	1353
451.0	1357
451.2	1362
451.4	1363
451.6	1366
451.8	1368
452.0	1370
452.2	1371
452.4	1372
452.6	1370
452.8	1371
453.0	1372
453.2	1373
453.4	1376
453.6	1382
453.8	1384
454.0	1386
454.2	1384
454.4	1384
454.6	1387
454.8	1392
455.0	1395
455.2	1397
455.4	1396
455.6	1396
455.8	1396
456.0	1398
456.2	1403
456.4	1402
456.6	1399
456.8	1398
457.0	1398
457.2	1401
457.4	1405
457.6	1405
457.8	1407
458.0	1408
458.2	1408
458.4	1407
458.6	1403
458.8	1400
459.0	1402
459.2	1403
459.4	1402
459.6	1403
459.8	1403
460.0	1403
460.2	1405
460.4	1406
460.6	1404
460.8	1405
461.0	1403
461.2	1402
461.4	1402
461.6	1402
461.8	1400
462.0	1399
462.2	1400
462.4	1400
462.6	1403
462.8	1407
463.0	1407
463.2	1404
463.4	1406
463.6	1404
463.8	1403
464.0	1402
464.2	1400
464.4	1395
464.6	1395
464.8	1394
465.0	1392
465.2	1394
465.4	1393
465.6	1390
465.8	1388
466.0	1385
466.2	1382
466.4	1383
466.6	1381
466.8	1380
467.0	1376
467.2	1372
467.4	1369
467.6	1371
467.8	1371
468.0	1369
468.2	1364
468.4	1360
468.6	1357
468.8	1356
469.0	1355
469.2	1355
469.4	1353
469.6	1349
469.8	1347
470.0	1347
470.2	1347
470.4	1348
470.6	1344
470.8	1339
471.0	1335
471.2	1334
471.4	1334
471.6	1333
471.8	1328
472.0	1322
472.2	1317
472.4	1317
472.6	1318
472.8	1317
473.0	1313
473.2	1306
473.4	1302
473.6	1302
473.8	1302
474.0	1299
474.2	1295
474.4	1292
474.6	1289
474.8	1284
475.0	1283
475.2	1278
475.4	1273
475.6	1271
475.8	1270
476.0	1266
476.2	1265
476.4	1263
476.6	1259
476.8	1256
477.0	1252
477.2	1248
477.4	1244
477.6	1238
477.8	1234
478.0	1233
478.2	1231
478.4	1229
478.6	1227
478.8	1225
479.0	1222
479.2	1220
479.4	1215
479.6	1210
479.8	1207
480.0	1203
480.2	1201
480.4	1197
480.6	1192
480.8	1189
481.0	1187
481.2	1183
481.4	1181
481.6	1179
481.8	1176
482.0	1174
482.2	1170
482.4	1165
482.6	1161
482.8	1155
483.0	1154
483.2	1153
483.4	1149
483.6	1146
483.8	1144
484.0	1140
484.2	1139
484.4	1138
484.6	1133
484.8	1127
485.0	1123
485.2	1117
485.4	1110
485.6	1106
485.8	1104
486.0	1101
486.2	1099
486.4	1098
486.6	1096
486.8	1094
487.0	1091
487.2	1085
487.4	1079
487.6	1074
487.8	1071
488.0	1067
488.2	1063
488.4	1061
488.6	1058
488.8	1054
489.0	1051
489.2	1046
489.4	1043
489.6	1041
489.8	1036
490.0	1031
490.2	1026
490.4	1021
490.6	1020
490.8	1019
491.0	1013
491.2	1008
491.4	1004
491.6	1000
491.8	996.1
492.0	993.4
492.2	986.3
492.4	981.9
492.6	980.6
492.8	977.8
493.0	974.5
493.2	971.9
493.4	968.4
493.6	966.0
493.8	962.6
494.0	956.8
494.2	950.6
494.4	948.0
494.6	946.4
494.8	944.4
495.0	940.2
495.2	934.0
495.4	927.5
495.6	921.4
495.8	916.6
496.0	912.3
496.2	909.6
496.4	907.1
496.6	905.1
496.8	900.4
497.0	896.5
497.2	892.4
497.4	888.5
497.6	884.4
497.8	882.4
498.0	878.0
498.2	874.4
498.4	872.0
498.6	869.4
498.8	865.9
499.0	862.6
499.2	857.1
499.4	851.5
499.6	847.6
499.8	842.1
500.0	838.4
500.2	834.6
500.4	831.2
500.6	828.5
500.8	824.9
501.0	818.9
501.2	815.8
501.4	811.1
501.6	808.2
501.8	806.6
502.0	804.4
502.2	800.7
502.4	797.1
502.6	791.6
502.8	786.0
503.0	782.8
503.2	779.6
503.4	776.7
503.6	771.6
503.8	767.0
504.0	760.8
504.2	757.1
504.4	753.4
504.6	751.2
504.8	747.8
505.0	744.7
505.2	740.4
505.4	737.1
505.6	733.9
505.8	729.1
506.0	725.0
506.2	719.9
506.4	715.0
506.6	711.0
506.8	709.0
507.0	706.2
507.2	704.5
507.4	699.8
507.6	696.1
507.8	692.2
508.0	688.6
508.2	684.3
508.4	680.8
508.6	676.2
508.8	673.3
509.0	671.8
509.2	669.6
509.4	665.4
509.6	660.7
509.8	655.9
510.0	651.8
510.2	649.7
510.4	647.1
510.6	644.6
510.8	640.8
511.0	635.9
511.2	633.0
511.4	630.3
511.6	627.5
511.8	625.3
512.0	622.0
512.2	616.8
512.4	613.1
512.6	609.4
512.8	605.9
513.0	603.2
513.2	600.5
513.4	597.2
513.6	593.3
513.8	590.2
514.0	586.6
514.2	583.8
514.4	580.8
514.6	577.6
514.8	574.4
515.0	570.9
515.2	567.8
515.4	564.5
515.6	560.9
515.8	557.8
516.0	555.0
516.2	551.5
516.4	548.7
516.6	545.8
516.8	543.1
517.0	539.5
517.2	536.3
517.4	533.9
517.6	531.7
517.8	529.4
518.0	526.7
518.2	522.6
518.4	519.7
518.6	517.7
518.8	514.5
519.0	511.5
519.2	507.9
519.4	504.0
519.6	501.5
519.8	499.2
520.0	496.4
520.2	494.5
520.4	491.8
520.6	488.9
520.8	486.2
521.0	483.5
521.2	481.3
521.4	478.7
521.6	475.1
521.8	472.0
522.0	468.8
522.2	466.5
522.4	464.1
522.6	461.2
522.8	457.9
523.0	455.5
523.2	453.3
523.4	451.7
523.6	448.0
523.8	444.7
524.0	441.7
524.2	439.7
524.4	438.5
524.6	436.5
524.8	432.5
525.0	428.9
525.2	426.3
525.4	424.4
525.6	423.3
525.8	421.9
526.0	419.4
526.2	416.1
526.4	413.2
526.6	410.1
526.8	407.7
527.0	405.6
527.2	402.9
527.4	400.4
527.6	398.2
527.8	395.8
528.0	393.7
528.2	391.8
528.4	389.7
528.6	387.9
528.8	386.4
529.0	383.2
529.2	380.0
529.4	377.4
529.6	375.2
529.8	373.5
530.0	371.8
530.2	369.2
530.4	366.4
530.6	364.1
530.8	362.6
531.0	361.3
531.2	359.0
531.4	356.9
531.6	354.1
531.8	351.7
532.0	349.6
532.2	348.0
532.4	346.2
532.6	344.4
532.8	342.9
533.0	341.1
533.2	339.2
533.4	336.7
533.6	334.4
533.8	331.4
534.0	329.9
534.2	328.3
534.4	327.1
534.6	325.4
534.8	322.6
535.0	319.5
535.2	317.5
535.4	315.8
535.6	313.8
535.8	312.4
536.0	310.3
536.2	309.1
536.4	307.7
536.6	306.4
536.8	304.3
537.0	302.2
537.2	299.9
537.4	297.8
537.6	295.3
537.8	293.2
538.0	291.6
538.2	290.3
538.4	289.2
538.6	287.8
538.8	285.8
539.0	284.3
539.2	282.8
539.4	280.6
539.6	279.0
539.8	277.3
540.0	275.3
540.2	273.5
540.4	271.6
540.6	269.6
540.8	268.2
541.0	267.3
541.2	265.4
541.4	263.4
541.6	261.9
541.8	260.2
542.0	258.7
542.2	257.6
542.4	255.7
542.6	254.0
542.8	252.6
543.0	250.8
543.2	249.0
543.4	247.2
543.6	245.4
543.8	243.7
544.0	242.2
544.2	241.2
544.4	239.7
544.6	238.4
544.8	236.9
545.0	235.3
545.2	234.3
545.4	233.4
545.6	232.1
545.8	230.5
546.0	228.5
546.2	227.2
546.4	226.2
546.6	225.2
546.8	224.0
547.0	222.2
547.2	220.1
547.4	219.1
547.6	217.7
547.8	216.5
548.0	215.0
548.2	213.2
548.4	211.4
548.6	210.4
548.8	209.0
549.0	208.2
549.2	206.8
549.4	205.7
549.6	203.9
549.8	202.4
550.0	200.9
550.2	200.1
550.4	199.0
550.6	198.2
550.8	196.4
551.0	195.0
551.2	193.5
551.4	192.5
551.6	191.2
551.8	189.4
552.0	187.7
552.2	186.6
552.4	185.7
552.6	185.0
552.8	184.3
553.0	182.7
553.2	181.7
553.4	180.5
553.6	179.4
553.8	177.7
554.0	176.7
554.2	175.8
554.4	175.0
554.6	174.3
554.8	173.1
555.0	171.3
555.2	169.9
555.4	168.7
555.6	167.0
555.8	166.3
556.0	165.4
556.2	164.6
556.4	164.0
556.6	163.4
556.8	162.1
557.0	161.1
557.2	159.8
557.4	158.8
557.6	157.9
557.8	156.9
558.0	156.1
558.2	155.3
558.4	154.4
558.6	153.3
558.8	152.2
559.0	150.5
559.2	149.4
559.4	148.7
559.6	148.0
559.8	147.0
560.0	146.1
560.2	144.9
560.4	144.0
560.6	143.2
560.8	142.0
561.0	140.9
561.2	139.9
561.4	138.8
561.6	137.6
561.8	136.5
562.0	135.6
562.2	135.3
562.4	134.9
562.6	134.6
562.8	133.7
563.0	132.3
563.2	130.9
563.4	129.8
563.6	128.9
563.8	128.3
564.0	127.7
564.2	126.7
564.4	126.0
564.6	125.5
564.8	124.9
565.0	124.0
565.2	123.1
565.4	122.1
565.6	121.1
565.8	120.3
566.0	119.6
566.2	118.8
566.4	118.0
566.6	117.3
566.8	116.5
567.0	115.7
567.2	115.1
567.4	114.4
567.6	113.6
567.8	112.9
568.0	112.5
568.2	111.8
568.4	111.0
568.6	110.0
568.8	109.0
569.0	108.2
569.2	107.8
569.4	107.3
569.6	106.5
569.8	105.4
570.0	104.5
570.2	103.9
570.4	103.7
570.6	103.4
570.8	103.1
571.0	102.1
571.2	101.2
571.4	100.1
571.6	99.44
571.8	98.84
572.0	98.46
572.2	97.94
572.4	97.10
572.6	96.10
572.8	95.47
573.0	94.82
573.2	94.27
573.4	93.93
573.6	93.27
573.8	92.58
574.0	91.98
574.2	91.58
574.4	91.10
574.6	90.19
574.8	89.52
575.0	88.81
575.2	88.23
575.4	87.90
575.6	87.39
575.8	86.43
576.0	85.87
576.2	85.29
576.4	84.70
576.6	84.25
576.8	84.05
577.0	83.51
577.2	83.22
577.4	82.92
577.6	82.20
577.8	81.66
578.0	81.12
578.2	80.28
578.4	79.63
578.6	79.23
578.8	78.72
579.0	78.12
579.2	77.62
579.4	76.94
579.6	76.64
579.8	76.25
580.0	75.89
580.2	75.30
580.4	74.57
580.6	73.97
580.8	73.85
581.0	73.38
581.2	72.64
581.4	72.03
581.6	71.30
581.8	70.93
582.0	70.72
582.2	70.42
582.4	69.90
582.6	69.33
582.8	68.77
583.0	68.40
583.2	68.08
583.4	67.74
583.6	67.35
583.8	66.87
584.0	66.57
584.2	65.88
584.4	65.28
584.6	64.91
584.8	64.48
585.0	64.19
585.2	64.03
585.4	63.38
585.6	62.75
585.8	62.41
586.0	61.97
586.2	61.48
586.4	61.16
586.6	60.62
586.8	60.34
587.0	60.04
587.2	59.80
587.4	59.80
587.6	59.52
587.8	58.78
588.0	58.47
588.2	57.93
588.4	57.49
588.6	57.22
588.8	56.80
589.0	56.13
589.2	55.81
589.4	55.56
589.6	55.41
589.8	55.12
590.0	55.00
590.2	54.30
590.4	53.91
590.6	53.50
590.8	53.07
591.0	52.65
591.2	52.44
591.4	52.00
591.6	51.95
591.8	51.70
592.0	51.38
592.2	50.96
592.4	50.47
592.6	50.01
592.8	49.68
593.0	49.24
593.2	49.01
593.4	48.62
593.6	48.21
593.8	47.86
594.0	47.56
594.2	47.34
594.4	47.27
594.6	47.09
594.8	46.83
595.0	46.38
595.2	45.84
595.4	45.55
595.6	45.48
595.8	45.21
596.0	44.88
596.2	44.56
596.4	44.22
596.6	43.98
596.8	43.88
597.0	43.57
597.2	43.24
597.4	42.94
597.6	42.71
597.8	42.45
598.0	42.14
598.2	41.79
598.4	41.46
598.6	41.04
598.8	40.78
599.0	40.51
599.2	40.36
599.4	39.99
599.6	39.78
599.8	39.57
600.0	39.31
600.2	38.91
600.4	38.82
600.6	38.51
600.8	38.28
601.0	37.98
601.2	37.81
601.4	37.52
601.6	37.40
601.8	37.19
602.0	36.86
602.2	36.47
602.4	36.20
602.6	35.83
602.8	35.55
603.0	35.39
603.2	35.29
603.4	35.28
603.6	35.04
603.8	34.70
604.0	34.43
604.2	34.11
604.4	33.92
604.6	33.78
604.8	33.60
605.0	33.46
605.2	33.30
605.4	32.96
605.6	32.66
605.8	32.22
606.0	32.05
606.2	31.89
606.4	31.66
606.6	31.39
606.8	31.18
607.0	30.85
607.2	30.71
607.4	30.52
607.6	30.35
607.8	30.19
608.0	30.02
608.2	29.82
608.4	29.65
608.6	29.32
608.8	29.12
609.0	29.03
609.2	28.89
609.4	28.66
609.6	28.48
609.8	28.20
610.0	28.01
610.2	27.86
610.4	27.86
610.6	27.65
610.8	27.36
611.0	27.05
611.2	26.88
611.4	26.64
611.6	26.56
611.8	26.37
612.0	26.08
612.2	25.86
612.4	25.84
612.6	25.73
612.8	25.61
613.0	25.51
613.2	25.32
613.4	25.22
613.6	24.98
613.8	24.69
614.0	24.41
614.2	24.21
614.4	24.03
614.6	23.93
614.8	23.76
615.0	23.55
615.2	23.51
615.4	23.33
615.6	23.23
615.8	23.13
616.0	23.10
616.2	22.89
616.4	22.92
616.6	22.68
616.8	22.50
617.0	22.32
617.2	22.10
617.4	21.80
617.6	21.73
617.8	21.62
618.0	21.61
618.2	21.50
618.4	21.28
618.6	20.95
618.8	20.72
619.0	20.52
619.2	20.47
619.4	20.26
619.6	20.22
619.8	20.07
620.0	19.84
620.2	19.73
620.4	19.66
620.6	19.41
620.8	19.37
621.0	19.26
621.2	19.07
621.4	18.94
621.6	18.79
621.8	18.62
622.0	18.58
622.2	18.50
622.4	18.40
622.6	18.19
622.8	18.09
623.0	17.89
623.2	17.86
623.4	17.75
623.6	17.58
623.8	17.36
624.0	17.33
624.2	17.18
624.4	17.21
624.6	17.10
624.8	16.96
625.0	16.84
625.2	16.77
625.4	16.69
625.6	16.66
625.8	16.44
626.0	16.35
626.2	16.14
626.4	16.02
626.6	15.82
626.8	15.80
627.0	15.69
627.2	15.78
627.4	15.57
627.6	15.46
627.8	15.24
628.0	15.19
628.2	14.99
628.4	14.98
628.6	14.89
628.8	14.86
629.0	14.81
629.2	14.75
629.4	14.49
629.6	14.35
629.8	14.21
630.0	13.98
630.2	13.86
630.4	13.86
630.6	13.77
630.8	13.77
631.0	13.68
631.2	13.44
631.4	13.28
631.6	13.27
631.8	13.22
632.0	13.15
632.2	13.12
632.4	13.07
632.6	12.89
632.8	12.92
633.0	12.90
633.2	12.77
633.4	12.67
633.6	12.61
633.8	12.45
634.0	12.28
634.2	12.15
634.4	11.98
634.6	11.86
634.8	11.86
635.0	11.93
635.2	11.95
635.4	11.93
635.6	11.81
635.8	11.63
636.0	11.50
636.2	11.46
636.4	11.44
636.6	11.41
636.8	11.30
637.0	11.05
637.2	10.86
637.4	10.74
637.6	10.70
637.8	10.79
638.0	10.86
638.2	10.77
638.4	10.65
638.6	10.53
638.8	10.46
639.0	10.43
639.2	10.36
639.4	10.27
639.6	10.17
639.8	10.09
640.0	10.03
640.2	9.957
640.4	9.866
640.6	9.839
640.8	9.776
641.0	9.634
641.2	9.632
641.4	9.474
641.6	9.326
641.8	9.277
642.0	9.179
642.2	9.126
642.4	9.271
642.6	9.155
642.8	9.103
643.0	9.002
643.2	8.874
643.4	8.849
643.6	8.827
643.8	8.715
644.0	8.704
644.2	8.543
644.4	8.497
644.6	8.480
644.8	8.481
645.0	8.430
645.2	8.379
645.4	8.259
645.6	8.197
645.8	8.152
646.0	8.134
646.2	8.092
646.4	7.973
646.6	7.858
646.8	7.792
647.0	7.716
647.2	7.659
647.4	7.663
647.6	7.527
647.8	7.438
648.0	7.541
648.2	7.571
648.4	7.585
648.6	7.516
648.8	7.357
649.0	7.197
649.2	7.236
649.4	7.280
649.6	7.302
649.8	7.195
650.0	7.188
650.2	7.067
650.4	7.065
650.6	7.003
650.8	6.967
651.0	6.807
651.2	6.781
651.4	6.725
651.6	6.757
651.8	6.665
652.0	6.689
652.2	6.546
652.4	6.449
652.6	6.409
652.8	6.412
653.0	6.358
653.2	6.379
653.4	6.257
653.6	6.152
653.8	6.069
654.0	6.062
654.2	6.016
654.4	6.029
654.6	6.003
654.8	5.985
655.0	5.890
655.2	5.899
655.4	5.877
655.6	5.877
655.8	5.823
656.0	5.762
656.2	5.624
656.4	5.674
656.6	5.648
656.8	5.640
657.0	5.562
657.2	5.448
657.4	5.353
657.6	5.396
657.8	5.373
658.0	5.419
658.2	5.390
658.4	5.381
658.6	5.344
658.8	5.378
659.0	5.336
659.2	5.262
659.4	5.141
659.6	5.087
659.8	5.027
660.0	5.096
660.2	5.055
660.4	5.060
660.6	5.008
660.8	4.978
661.0	4.897
661.2	4.860
661.4	4.777
661.6	4.743
661.8	4.631
662.0	4.623
662.2	4.560
662.4	4.566
662.6	4.516
662.8	4.529
663.0	4.488
663.2	4.499
663.4	4.477
663.6	4.488
663.8	4.428
664.0	4.511
664.2	4.449
664.4	4.430
664.6	4.389
664.8	4.364
665.0	4.294
665.2	4.225
665.4	4.120
665.6	4.124
665.8	4.117
666.0	4.097
666.2	4.075
666.4	4.067
666.6	4.062
666.8	4.056
667.0	3.992
667.2	3.876
667.4	3.838
667.6	3.912
667.8	3.927
668.0	3.912
668.2	3.889
668.4	3.825
668.6	3.818
668.8	3.825
669.0	3.786
669.2	3.741
669.4	3.729
669.6	3.688
669.8	3.650
670.0	3.631
670.2	3.601
670.4	3.597
670.6	3.587
670.8	3.598
671.0	3.516
671.2	3.485
671.4	3.429
671.6	3.399
671.8	3.354
672.0	3.377
672.2	3.354
672.4	3.386
672.6	3.388
672.8	3.362
673.0	3.275
673.2	3.211
673.4	3.147
673.6	3.143
673.8	3.152
674.0	3.198
674.2	3.202
674.4	3.190
674.6	3.145
674.8	3.084
675.0	3.073
675.2	3.098
675.4	3.080
675.6	3.063
675.8	3.028
676.0	2.990
676.2	2.974
676.4	2.938
676.6	2.910
676.8	2.893
677.0	2.846
677.2	2.803
677.4	2.754
677.6	2.747
677.8	2.754
678.0	2.760
678.2	2.754
678.4	2.797
678.6	2.730
678.8	2.779
679.0	2.724
679.2	2.725
679.4	2.715
679.6	2.696
679.8	2.590
680.0	2.644
680.2	2.599
680.4	2.691
680.6	2.717
680.8	2.648
681.0	2.568
681.2	2.531
681.4	2.479
681.6	2.479
681.8	2.514
682.0	2.506
682.2	2.528
682.4	2.553
682.6	2.513
682.8	2.486
683.0	2.488
683.2	2.438
683.4	2.407
683.6	2.393
683.8	2.377
684.0	2.394
684.2	2.376
684.4	2.346
684.6	2.296
684.8	2.306
685.0	2.379
685.2	2.384
685.4	2.391
685.6	2.381
685.8	2.328
686.0	2.346
686.2	2.326
686.4	2.298
686.6	2.306
686.8	2.272
687.0	2.272
687.2	2.290
687.4	2.268
687.6	2.252
687.8	2.256
688.0	2.234
688.2	2.269
688.4	2.286
688.6	2.337
688.8	2.291
689.0	2.258
689.2	2.225
689.4	2.171
689.6	2.199
689.8	2.251
690.0	2.261
690.2	2.261
690.4	2.230
690.6	2.163
690.8	2.215
691.0	2.208
691.2	2.251
691.4	2.209
691.6	2.205
691.8	2.178
692.0	2.194
692.2	2.181
692.4	2.201
692.6	2.142
692.8	2.185
693.0	2.166
693.2	2.160
693.4	2.166
693.6	2.166
693.8	2.118
694.0	2.123
694.2	2.104
694.4	2.126
694.6	2.180
694.8	2.212
695.0	2.216
695.2	2.195
695.4	2.150
695.6	2.142
695.8	2.170
696.0	2.173
696.2	2.165
696.4	2.156
696.6	2.102
696.8	2.103
697.0	2.112
697.2	2.101
697.4	2.102
697.6	2.141
697.8	2.105
698.0	2.134
698.2	2.138
698.4	2.136
698.6	2.179
698.8	2.237
699.0	2.224
699.2	2.248
699.4	2.233
699.6	2.195
699.8	2.131
700.0	2.038

