Sample:	'20211010A(EM)
File name:	B-NI 9.FDS
Run date:	'11:18:32, 06/20/2023
Operator:	Administrator
Comment:	'

Instrument
Model:	F-4700 FL Spectrophotometer
Serial number:	2019-001
ROM Version:	5J24010 00

Instrument parameters
Measurement type:	Wavelength scan
Scan mode:	Emission
Data mode:	Fluorescence
EX WL:	350.0 nm
EM  Start WL:	370.0 nm
EM  End WL:	700.0 nm
Scan speed:	1200 nm/min
Delay:	0.0 s
EX Slit:	10.0 nm
EM Slit:	10.0 nm
PMT Voltage:	305 V
Response:	0.002 s
Corrected spectra:	Off
Shutter control:	On

Processing performed
Savitsky-Golay smoothed
Smoothing order:	3
Number of points:	7
Number of times:	1

Peak integration
Integration method:	Rectangular
Sensitivity:	1
Threshold:	1.000

Peaks
No.	Start(nm)	Apex(nm)	End(nm)	Height(Data)	Valley(nm)	Valley(Data)
1	370.0	459.8	460.8	1579	460.8	1575
2	460.8	461.2	700.0	1578	700.0	2.415

Data points
nm	Data
370.0	1.627
370.2	1.585
370.4	1.577
370.6	1.587
370.8	1.590
371.0	1.597
371.2	1.616
371.4	1.610
371.6	1.606
371.8	1.604
372.0	1.625
372.2	1.660
372.4	1.723
372.6	1.735
372.8	1.760
373.0	1.773
373.2	1.800
373.4	1.832
373.6	1.841
373.8	1.825
374.0	1.817
374.2	1.823
374.4	1.840
374.6	1.879
374.8	1.919
375.0	1.946
375.2	1.948
375.4	2.003
375.6	2.029
375.8	2.082
376.0	2.140
376.2	2.181
376.4	2.178
376.6	2.207
376.8	2.179
377.0	2.215
377.2	2.288
377.4	2.387
377.6	2.460
377.8	2.496
378.0	2.483
378.2	2.483
378.4	2.515
378.6	2.530
378.8	2.539
379.0	2.545
379.2	2.542
379.4	2.585
379.6	2.621
379.8	2.666
380.0	2.745
380.2	2.792
380.4	2.820
380.6	2.892
380.8	2.876
381.0	2.909
381.2	3.007
381.4	3.043
381.6	3.136
381.8	3.188
382.0	3.202
382.2	3.213
382.4	3.257
382.6	3.303
382.8	3.361
383.0	3.417
383.2	3.534
383.4	3.643
383.6	3.740
383.8	3.779
384.0	3.796
384.2	3.868
384.4	3.925
384.6	3.970
384.8	4.048
385.0	4.085
385.2	4.168
385.4	4.306
385.6	4.434
385.8	4.534
386.0	4.637
386.2	4.690
386.4	4.740
386.6	4.861
386.8	4.942
387.0	5.097
387.2	5.173
387.4	5.171
387.6	5.238
387.8	5.362
388.0	5.514
388.2	5.746
388.4	5.925
388.6	6.028
388.8	6.117
389.0	6.267
389.2	6.409
389.4	6.577
389.6	6.788
389.8	6.955
390.0	7.104
390.2	7.350
390.4	7.524
390.6	7.745
390.8	7.906
391.0	8.017
391.2	8.216
391.4	8.406
391.6	8.653
391.8	8.881
392.0	9.119
392.2	9.337
392.4	9.666
392.6	9.823
392.8	10.08
393.0	10.35
393.2	10.66
393.4	10.90
393.6	11.21
393.8	11.53
394.0	11.89
394.2	12.41
394.4	12.92
394.6	13.25
394.8	13.58
395.0	14.04
395.2	14.40
395.4	14.89
395.6	15.35
395.8	15.89
396.0	16.39
396.2	16.91
396.4	17.27
396.6	17.65
396.8	18.09
397.0	18.77
397.2	19.51
397.4	20.28
397.6	20.83
397.8	21.38
398.0	22.05
398.2	22.69
398.4	23.43
398.6	24.34
398.8	25.15
399.0	26.00
399.2	26.99
399.4	27.91
399.6	28.72
399.8	29.58
400.0	30.54
400.2	31.52
400.4	32.53
400.6	33.64
400.8	34.75
401.0	36.00
401.2	37.47
401.4	38.79
401.6	40.04
401.8	41.33
402.0	42.62
402.2	44.02
402.4	45.50
402.6	46.94
402.8	48.51
403.0	50.27
403.2	51.92
403.4	53.63
403.6	55.27
403.8	56.85
404.0	58.64
404.2	60.52
404.4	62.51
404.6	64.90
404.8	67.20
405.0	69.72
405.2	72.12
405.4	74.57
405.6	76.71
405.8	79.08
406.0	81.34
406.2	83.90
406.4	86.49
406.6	89.38
406.8	92.03
407.0	95.01
407.2	97.91
407.4	101.1
407.6	104.2
407.8	107.1
408.0	110.1
408.2	113.3
408.4	116.4
408.6	120.3
408.8	124.0
409.0	127.9
409.2	131.7
409.4	135.5
409.6	139.2
409.8	143.3
410.0	147.6
410.2	152.2
410.4	156.6
410.6	160.8
410.8	165.0
411.0	169.6
411.2	174.6
411.4	179.8
411.6	184.8
411.8	189.2
412.0	193.4
412.2	198.2
412.4	203.5
412.6	208.8
412.8	214.2
413.0	219.4
413.2	224.6
413.4	230.1
413.6	236.1
413.8	242.1
414.0	247.7
414.2	253.8
414.4	259.8
414.6	266.5
414.8	273.2
415.0	279.8
415.2	286.6
415.4	293.9
415.6	300.5
415.8	307.5
416.0	314.5
416.2	321.4
416.4	327.9
416.6	335.4
416.8	342.4
417.0	348.9
417.2	356.5
417.4	363.4
417.6	369.9
417.8	377.7
418.0	384.8
418.2	392.6
418.4	401.1
418.6	408.3
418.8	415.8
419.0	424.0
419.2	431.8
419.4	440.5
419.6	449.8
419.8	458.5
420.0	466.5
420.2	475.2
420.4	483.4
420.6	491.4
420.8	499.9
421.0	508.2
421.2	516.0
421.4	524.9
421.6	533.8
421.8	543.2
422.0	552.8
422.2	560.9
422.4	568.8
422.6	577.4
422.8	585.4
423.0	595.3
423.2	605.3
423.4	614.2
423.6	622.7
423.8	632.2
424.0	640.4
424.2	650.4
424.4	659.4
424.6	669.4
424.8	678.6
425.0	688.2
425.2	697.2
425.4	706.7
425.6	715.8
425.8	725.8
426.0	735.6
426.2	745.6
426.4	755.3
426.6	763.4
426.8	771.6
427.0	780.1
427.2	789.5
427.4	800.1
427.6	809.5
427.8	819.4
428.0	828.9
428.2	837.6
428.4	846.5
428.6	856.1
428.8	862.6
429.0	872.7
429.2	881.7
429.4	890.7
429.6	900.9
429.8	911.1
430.0	919.8
430.2	929.5
430.4	937.7
430.6	946.3
430.8	954.5
431.0	962.8
431.2	973.5
431.4	982.1
431.6	992.0
431.8	1000
432.0	1008
432.2	1016
432.4	1025
432.6	1033
432.8	1043
433.0	1051
433.2	1060
433.4	1069
433.6	1078
433.8	1085
434.0	1093
434.2	1099
434.4	1105
434.6	1112
434.8	1123
435.0	1132
435.2	1144
435.4	1155
435.6	1162
435.8	1169
436.0	1175
436.2	1180
436.4	1186
436.6	1195
436.8	1203
437.0	1211
437.2	1219
437.4	1226
437.6	1232
437.8	1237
438.0	1243
438.2	1249
438.4	1256
438.6	1262
438.8	1269
439.0	1275
439.2	1282
439.4	1289
439.6	1296
439.8	1301
440.0	1307
440.2	1314
440.4	1320
440.6	1325
440.8	1330
441.0	1336
441.2	1343
441.4	1350
441.6	1355
441.8	1359
442.0	1364
442.2	1370
442.4	1375
442.6	1380
442.8	1382
443.0	1388
443.2	1392
443.4	1400
443.6	1406
443.8	1410
444.0	1413
444.2	1416
444.4	1419
444.6	1424
444.8	1428
445.0	1432
445.2	1435
445.4	1440
445.6	1445
445.8	1448
446.0	1453
446.2	1459
446.4	1463
446.6	1472
446.8	1474
447.0	1475
447.2	1476
447.4	1478
447.6	1478
447.8	1483
448.0	1483
448.2	1487
448.4	1491
448.6	1496
448.8	1499
449.0	1502
449.2	1504
449.4	1506
449.6	1510
449.8	1514
450.0	1516
450.2	1518
450.4	1520
450.6	1521
450.8	1527
451.0	1530
451.2	1533
451.4	1535
451.6	1538
451.8	1537
452.0	1540
452.2	1542
452.4	1544
452.6	1545
452.8	1545
453.0	1547
453.2	1550
453.4	1553
453.6	1554
453.8	1555
454.0	1554
454.2	1556
454.4	1558
454.6	1560
454.8	1562
455.0	1563
455.2	1562
455.4	1564
455.6	1568
455.8	1570
456.0	1571
456.2	1569
456.4	1568
456.6	1569
456.8	1571
457.0	1574
457.2	1575
457.4	1573
457.6	1573
457.8	1572
458.0	1573
458.2	1576
458.4	1576
458.6	1577
458.8	1577
459.0	1577
459.2	1577
459.4	1578
459.6	1578
459.8	1579
460.0	1578
460.2	1577
460.4	1576
460.6	1575
460.8	1575
461.0	1577
461.2	1578
461.4	1578
461.6	1576
461.8	1575
462.0	1575
462.2	1575
462.4	1572
462.6	1569
462.8	1567
463.0	1566
463.2	1565
463.4	1567
463.6	1567
463.8	1565
464.0	1564
464.2	1561
464.4	1560
464.6	1560
464.8	1562
465.0	1559
465.2	1558
465.4	1555
465.6	1554
465.8	1551
466.0	1551
466.2	1549
466.4	1549
466.6	1547
466.8	1546
467.0	1544
467.2	1543
467.4	1539
467.6	1535
467.8	1530
468.0	1526
468.2	1524
468.4	1522
468.6	1523
468.8	1522
469.0	1520
469.2	1517
469.4	1514
469.6	1511
469.8	1509
470.0	1505
470.2	1505
470.4	1502
470.6	1501
470.8	1499
471.0	1495
471.2	1492
471.4	1487
471.6	1483
471.8	1479
472.0	1476
472.2	1471
472.4	1470
472.6	1467
472.8	1467
473.0	1464
473.2	1464
473.4	1458
473.6	1454
473.8	1449
474.0	1444
474.2	1440
474.4	1440
474.6	1438
474.8	1435
475.0	1432
475.2	1427
475.4	1422
475.6	1418
475.8	1416
476.0	1415
476.2	1414
476.4	1409
476.6	1403
476.8	1398
477.0	1393
477.2	1391
477.4	1389
477.6	1386
477.8	1383
478.0	1379
478.2	1373
478.4	1371
478.6	1367
478.8	1364
479.0	1362
479.2	1358
479.4	1353
479.6	1350
479.8	1347
480.0	1344
480.2	1342
480.4	1341
480.6	1336
480.8	1331
481.0	1326
481.2	1318
481.4	1313
481.6	1311
481.8	1308
482.0	1306
482.2	1301
482.4	1297
482.6	1293
482.8	1290
483.0	1287
483.2	1285
483.4	1281
483.6	1278
483.8	1275
484.0	1271
484.2	1266
484.4	1261
484.6	1256
484.8	1252
485.0	1248
485.2	1245
485.4	1242
485.6	1237
485.8	1234
486.0	1231
486.2	1228
486.4	1223
486.6	1219
486.8	1214
487.0	1210
487.2	1206
487.4	1202
487.6	1198
487.8	1195
488.0	1190
488.2	1184
488.4	1179
488.6	1174
488.8	1173
489.0	1172
489.2	1167
489.4	1162
489.6	1156
489.8	1151
490.0	1148
490.2	1144
490.4	1139
490.6	1134
490.8	1130
491.0	1127
491.2	1123
491.4	1118
491.6	1114
491.8	1110
492.0	1107
492.2	1102
492.4	1099
492.6	1094
492.8	1090
493.0	1087
493.2	1084
493.4	1078
493.6	1073
493.8	1066
494.0	1061
494.2	1058
494.4	1054
494.6	1050
494.8	1046
495.0	1042
495.2	1039
495.4	1035
495.6	1030
495.8	1024
496.0	1018
496.2	1013
496.4	1009
496.6	1006
496.8	1003
497.0	999.8
497.2	996.2
497.4	991.6
497.6	986.6
497.8	981.5
498.0	977.3
498.2	972.6
498.4	968.9
498.6	963.9
498.8	959.0
499.0	953.4
499.2	948.7
499.4	943.6
499.6	940.5
499.8	935.2
500.0	933.2
500.2	929.2
500.4	925.0
500.6	919.4
500.8	914.3
501.0	909.5
501.2	907.3
501.4	902.8
501.6	898.2
501.8	894.3
502.0	890.5
502.2	886.5
502.4	881.4
502.6	875.8
502.8	869.5
503.0	866.8
503.2	863.7
503.4	860.5
503.6	856.3
503.8	853.3
504.0	849.2
504.2	844.4
504.4	840.0
504.6	834.7
504.8	830.3
505.0	826.3
505.2	822.3
505.4	818.4
505.6	814.3
505.8	808.8
506.0	804.5
506.2	799.0
506.4	795.5
506.6	793.0
506.8	790.0
507.0	787.6
507.2	783.8
507.4	777.8
507.6	773.0
507.8	768.1
508.0	763.6
508.2	761.5
508.4	757.8
508.6	753.6
508.8	749.5
509.0	746.6
509.2	741.9
509.4	737.8
509.6	732.8
509.8	729.1
510.0	726.1
510.2	723.8
510.4	720.0
510.6	715.1
510.8	710.2
511.0	706.9
511.2	703.2
511.4	698.7
511.6	694.5
511.8	690.9
512.0	688.1
512.2	686.2
512.4	682.0
512.6	677.4
512.8	672.7
513.0	669.3
513.2	666.5
513.4	662.8
513.6	657.9
513.8	653.8
514.0	649.8
514.2	647.4
514.4	645.0
514.6	641.0
514.8	638.3
515.0	634.7
515.2	631.2
515.4	628.0
515.6	623.5
515.8	618.9
516.0	616.4
516.2	612.8
516.4	609.6
516.6	606.8
516.8	602.5
517.0	599.0
517.2	595.4
517.4	591.5
517.6	588.7
517.8	586.8
518.0	583.3
518.2	580.3
518.4	577.1
518.6	574.0
518.8	571.1
519.0	567.7
519.2	564.4
519.4	560.6
519.6	557.2
519.8	554.2
520.0	551.0
520.2	547.7
520.4	545.3
520.6	542.0
520.8	538.5
521.0	535.0
521.2	532.4
521.4	529.4
521.6	526.7
521.8	523.0
522.0	519.4
522.2	515.8
522.4	513.6
522.6	510.3
522.8	507.7
523.0	504.3
523.2	501.9
523.4	498.7
523.6	496.2
523.8	492.9
524.0	489.6
524.2	485.8
524.4	483.6
524.6	481.1
524.8	479.5
525.0	477.3
525.2	474.3
525.4	470.6
525.6	467.9
525.8	465.4
526.0	463.3
526.2	460.8
526.4	457.6
526.6	454.5
526.8	450.8
527.0	448.2
527.2	445.8
527.4	443.9
527.6	442.0
527.8	439.2
528.0	436.7
528.2	435.1
528.4	432.6
528.6	430.2
528.8	428.1
529.0	424.8
529.2	422.3
529.4	420.4
529.6	417.4
529.8	413.9
530.0	411.5
530.2	409.5
530.4	407.5
530.6	405.4
530.8	402.9
531.0	399.9
531.2	397.5
531.4	395.4
531.6	393.6
531.8	391.1
532.0	388.8
532.2	386.2
532.4	383.1
532.6	379.9
532.8	378.0
533.0	376.5
533.2	375.2
533.4	372.5
533.6	368.9
533.8	365.8
534.0	363.7
534.2	362.0
534.4	360.6
534.6	358.6
534.8	356.4
535.0	354.6
535.2	353.0
535.4	350.6
535.6	349.2
535.8	347.3
536.0	344.7
536.2	342.8
536.4	340.5
536.6	337.2
536.8	335.8
537.0	333.8
537.2	332.2
537.4	331.2
537.6	328.8
537.8	325.7
538.0	323.7
538.2	321.6
538.4	320.2
538.6	317.8
538.8	315.6
539.0	313.2
539.2	310.8
539.4	309.4
539.6	308.0
539.8	306.2
540.0	304.9
540.2	303.3
540.4	301.0
540.6	299.0
540.8	297.7
541.0	295.5
541.2	293.6
541.4	291.7
541.6	289.8
541.8	287.8
542.0	286.7
542.2	285.1
542.4	283.2
542.6	280.4
542.8	278.8
543.0	276.8
543.2	275.0
543.4	273.5
543.6	271.2
543.8	269.4
544.0	268.3
544.2	266.8
544.4	265.3
544.6	263.5
544.8	261.3
545.0	260.2
545.2	258.9
545.4	257.3
545.6	255.8
545.8	254.2
546.0	253.0
546.2	251.9
546.4	250.9
546.6	248.7
546.8	246.9
547.0	244.8
547.2	243.3
547.4	242.2
547.6	241.4
547.8	239.6
548.0	237.6
548.2	235.5
548.4	233.6
548.6	232.0
548.8	230.6
549.0	229.9
549.2	228.7
549.4	227.2
549.6	225.8
549.8	224.2
550.0	222.7
550.2	221.9
550.4	220.1
550.6	217.7
550.8	216.4
551.0	214.8
551.2	213.9
551.4	212.6
551.6	211.0
551.8	209.5
552.0	208.1
552.2	206.8
552.4	206.2
552.6	205.0
552.8	203.9
553.0	202.9
553.2	201.4
553.4	200.1
553.6	198.5
553.8	197.0
554.0	195.3
554.2	194.1
554.4	193.3
554.6	192.4
554.8	190.8
555.0	189.6
555.2	188.1
555.4	186.8
555.6	185.9
555.8	184.9
556.0	183.6
556.2	182.0
556.4	180.7
556.6	179.7
556.8	178.7
557.0	177.7
557.2	176.6
557.4	175.2
557.6	174.0
557.8	172.6
558.0	171.7
558.2	170.7
558.4	169.8
558.6	168.4
558.8	167.4
559.0	166.1
559.2	165.2
559.4	164.4
559.6	163.7
559.8	162.1
560.0	160.8
560.2	159.8
560.4	158.6
560.6	157.7
560.8	157.2
561.0	156.4
561.2	155.5
561.4	154.6
561.6	153.2
561.8	151.9
562.0	150.5
562.2	149.4
562.4	148.1
562.6	147.5
562.8	146.6
563.0	145.9
563.2	145.1
563.4	144.3
563.6	143.1
563.8	142.0
564.0	140.9
564.2	139.8
564.4	138.9
564.6	138.3
564.8	137.6
565.0	136.3
565.2	135.4
565.4	134.3
565.6	133.5
565.8	132.7
566.0	131.7
566.2	130.7
566.4	129.8
566.6	128.8
566.8	128.3
567.0	127.5
567.2	126.7
567.4	126.3
567.6	125.8
567.8	124.7
568.0	123.5
568.2	122.4
568.4	121.4
568.6	120.5
568.8	119.7
569.0	118.9
569.2	118.4
569.4	118.3
569.6	118.2
569.8	117.6
570.0	116.5
570.2	115.0
570.4	113.8
570.6	112.8
570.8	112.2
571.0	111.4
571.2	110.9
571.4	110.4
571.6	109.6
571.8	108.6
572.0	107.7
572.2	106.9
572.4	106.5
572.6	106.7
572.8	106.2
573.0	105.3
573.2	104.4
573.4	103.6
573.6	102.4
573.8	101.8
574.0	101.2
574.2	100.7
574.4	100.4
574.6	100.0
574.8	99.22
575.0	98.56
575.2	97.44
575.4	96.74
575.6	96.01
575.8	95.11
576.0	94.47
576.2	94.00
576.4	93.57
576.6	93.31
576.8	92.86
577.0	92.35
577.2	91.71
577.4	90.97
577.6	90.34
577.8	89.66
578.0	89.12
578.2	88.52
578.4	87.74
578.6	87.13
578.8	86.74
579.0	86.27
579.2	85.47
579.4	84.57
579.6	83.66
579.8	83.17
580.0	82.95
580.2	82.34
580.4	81.71
580.6	81.15
580.8	80.51
581.0	79.69
581.2	79.37
581.4	78.75
581.6	78.50
581.8	78.21
582.0	77.89
582.2	77.10
582.4	76.52
582.6	75.99
582.8	75.75
583.0	75.00
583.2	74.51
583.4	74.08
583.6	73.83
583.8	73.70
584.0	73.73
584.2	73.07
584.4	72.50
584.6	71.89
584.8	71.41
585.0	70.89
585.2	70.37
585.4	69.72
585.6	69.27
585.8	68.63
586.0	68.19
586.2	67.68
586.4	67.32
586.6	66.90
586.8	66.57
587.0	66.19
587.2	65.77
587.4	65.15
587.6	64.68
587.8	64.37
588.0	63.90
588.2	63.66
588.4	63.44
588.6	63.03
588.8	62.26
589.0	61.65
589.2	61.16
589.4	60.92
589.6	60.65
589.8	60.37
590.0	59.75
590.2	59.09
590.4	58.85
590.6	58.77
590.8	58.44
591.0	57.94
591.2	57.17
591.4	56.86
591.6	56.74
591.8	56.71
592.0	56.47
592.2	55.87
592.4	55.21
592.6	54.97
592.8	54.48
593.0	54.06
593.2	53.77
593.4	53.37
593.6	53.13
593.8	52.96
594.0	52.57
594.2	52.23
594.4	52.09
594.6	51.66
594.8	51.18
595.0	50.75
595.2	50.26
595.4	50.04
595.6	50.17
595.8	49.96
596.0	49.70
596.2	49.21
596.4	48.62
596.6	48.26
596.8	48.06
597.0	47.63
597.2	47.27
597.4	46.93
597.6	46.68
597.8	46.37
598.0	46.08
598.2	45.73
598.4	45.43
598.6	45.10
598.8	44.74
599.0	44.40
599.2	44.16
599.4	43.98
599.6	43.76
599.8	43.36
600.0	43.12
600.2	42.96
600.4	42.76
600.6	42.49
600.8	42.10
601.0	41.64
601.2	41.37
601.4	41.02
601.6	40.62
601.8	40.36
602.0	40.17
602.2	39.81
602.4	39.57
602.6	39.25
602.8	39.08
603.0	39.02
603.2	38.85
603.4	38.52
603.6	38.34
603.8	37.98
604.0	37.88
604.2	37.79
604.4	37.53
604.6	37.17
604.8	36.99
605.0	36.55
605.2	36.33
605.4	36.11
605.6	35.99
605.8	35.71
606.0	35.42
606.2	35.09
606.4	34.87
606.6	34.61
606.8	34.55
607.0	34.28
607.2	33.98
607.4	33.70
607.6	33.45
607.8	33.21
608.0	32.99
608.2	32.84
608.4	32.71
608.6	32.56
608.8	32.39
609.0	32.06
609.2	31.79
609.4	31.48
609.6	31.15
609.8	30.98
610.0	30.85
610.2	30.54
610.4	30.31
610.6	30.09
610.8	29.94
611.0	29.82
611.2	29.72
611.4	29.48
611.6	29.16
611.8	28.96
612.0	28.77
612.2	28.58
612.4	28.53
612.6	28.33
612.8	28.10
613.0	27.71
613.2	27.36
613.4	27.26
613.6	27.19
613.8	27.00
614.0	26.94
614.2	26.60
614.4	26.40
614.6	26.34
614.8	26.26
615.0	26.09
615.2	25.92
615.4	25.55
615.6	25.37
615.8	25.20
616.0	25.18
616.2	25.06
616.4	24.85
616.6	24.63
616.8	24.62
617.0	24.40
617.2	24.19
617.4	23.88
617.6	23.63
617.8	23.48
618.0	23.48
618.2	23.32
618.4	23.17
618.6	23.04
618.8	22.90
619.0	22.74
619.2	22.59
619.4	22.39
619.6	22.13
619.8	21.96
620.0	21.83
620.2	21.65
620.4	21.58
620.6	21.43
620.8	21.33
621.0	21.19
621.2	21.17
621.4	21.02
621.6	20.84
621.8	20.51
622.0	20.35
622.2	20.12
622.4	19.96
622.6	19.95
622.8	19.84
623.0	19.77
623.2	19.73
623.4	19.56
623.6	19.31
623.8	19.25
624.0	18.98
624.2	18.81
624.4	18.74
624.6	18.63
624.8	18.56
625.0	18.59
625.2	18.34
625.4	17.97
625.6	17.76
625.8	17.60
626.0	17.53
626.2	17.58
626.4	17.58
626.6	17.40
626.8	17.29
627.0	17.22
627.2	17.07
627.4	16.84
627.6	16.69
627.8	16.56
628.0	16.55
628.2	16.58
628.4	16.48
628.6	16.29
628.8	16.12
629.0	15.96
629.2	15.84
629.4	15.66
629.6	15.58
629.8	15.42
630.0	15.23
630.2	15.15
630.4	15.06
630.6	15.00
630.8	15.04
631.0	14.89
631.2	14.70
631.4	14.54
631.6	14.38
631.8	14.31
632.0	14.40
632.2	14.41
632.4	14.36
632.6	14.25
632.8	14.01
633.0	13.86
633.2	13.82
633.4	13.66
633.6	13.55
633.8	13.46
634.0	13.30
634.2	13.20
634.4	13.24
634.6	13.09
634.8	13.04
635.0	12.97
635.2	12.99
635.4	12.84
635.6	12.87
635.8	12.61
636.0	12.53
636.2	12.39
636.4	12.36
636.6	12.19
636.8	12.08
637.0	11.92
637.2	11.79
637.4	11.77
637.6	11.80
637.8	11.86
638.0	11.85
638.2	11.83
638.4	11.65
638.6	11.45
638.8	11.36
639.0	11.29
639.2	11.25
639.4	11.35
639.6	11.30
639.8	11.13
640.0	10.96
640.2	10.75
640.4	10.72
640.6	10.79
640.8	10.72
641.0	10.62
641.2	10.48
641.4	10.38
641.6	10.37
641.8	10.31
642.0	10.24
642.2	10.12
642.4	10.06
642.6	9.972
642.8	9.881
643.0	9.751
643.2	9.720
643.4	9.729
643.6	9.729
643.8	9.654
644.0	9.522
644.2	9.446
644.4	9.375
644.6	9.368
644.8	9.273
645.0	9.184
645.2	9.024
645.4	8.972
645.6	8.948
645.8	8.926
646.0	8.796
646.2	8.753
646.4	8.664
646.6	8.638
646.8	8.714
647.0	8.675
647.2	8.527
647.4	8.445
647.6	8.319
647.8	8.240
648.0	8.170
648.2	8.141
648.4	8.133
648.6	8.175
648.8	8.149
649.0	8.043
649.2	7.989
649.4	7.935
649.6	7.871
649.8	7.783
650.0	7.743
650.2	7.681
650.4	7.736
650.6	7.623
650.8	7.552
651.0	7.428
651.2	7.376
651.4	7.321
651.6	7.284
651.8	7.155
652.0	7.157
652.2	7.095
652.4	7.037
652.6	7.046
652.8	6.956
653.0	6.897
653.2	6.888
653.4	6.831
653.6	6.798
653.8	6.833
654.0	6.742
654.2	6.707
654.4	6.638
654.6	6.540
654.8	6.495
655.0	6.470
655.2	6.497
655.4	6.485
655.6	6.436
655.8	6.291
656.0	6.286
656.2	6.207
656.4	6.266
656.6	6.178
656.8	6.117
657.0	5.952
657.2	5.957
657.4	5.900
657.6	5.969
657.8	5.927
658.0	5.930
658.2	5.836
658.4	5.784
658.6	5.700
658.8	5.723
659.0	5.682
659.2	5.702
659.4	5.652
659.6	5.616
659.8	5.502
660.0	5.500
660.2	5.435
660.4	5.414
660.6	5.407
660.8	5.333
661.0	5.288
661.2	5.238
661.4	5.208
661.6	5.227
661.8	5.294
662.0	5.263
662.2	5.273
662.4	5.197
662.6	5.058
662.8	4.962
663.0	4.922
663.2	4.897
663.4	4.908
663.6	4.925
663.8	4.894
664.0	4.860
664.2	4.807
664.4	4.779
664.6	4.765
664.8	4.734
665.0	4.702
665.2	4.732
665.4	4.637
665.6	4.614
665.8	4.559
666.0	4.523
666.2	4.498
666.4	4.554
666.6	4.490
666.8	4.470
667.0	4.435
667.2	4.401
667.4	4.403
667.6	4.340
667.8	4.230
668.0	4.140
668.2	4.136
668.4	4.102
668.6	4.159
668.8	4.148
669.0	4.111
669.2	4.057
669.4	4.046
669.6	3.989
669.8	3.983
670.0	3.959
670.2	3.930
670.4	3.914
670.6	3.902
670.8	3.898
671.0	3.815
671.2	3.738
671.4	3.725
671.6	3.747
671.8	3.730
672.0	3.754
672.2	3.685
672.4	3.699
672.6	3.670
672.8	3.667
673.0	3.598
673.2	3.600
673.4	3.538
673.6	3.577
673.8	3.499
674.0	3.499
674.2	3.420
674.4	3.435
674.6	3.412
674.8	3.437
675.0	3.373
675.2	3.342
675.4	3.309
675.6	3.298
675.8	3.314
676.0	3.329
676.2	3.296
676.4	3.277
676.6	3.249
676.8	3.148
677.0	3.111
677.2	3.071
677.4	3.051
677.6	3.074
677.8	3.069
678.0	3.072
678.2	3.054
678.4	3.034
678.6	3.034
678.8	3.051
679.0	3.026
679.2	2.984
679.4	2.879
679.6	2.884
679.8	2.889
680.0	2.919
680.2	2.918
680.4	2.922
680.6	2.830
680.8	2.807
681.0	2.759
681.2	2.735
681.4	2.722
681.6	2.773
681.8	2.774
682.0	2.774
682.2	2.738
682.4	2.689
682.6	2.648
682.8	2.648
683.0	2.655
683.2	2.647
683.4	2.650
683.6	2.665
683.8	2.647
684.0	2.645
684.2	2.607
684.4	2.590
684.6	2.589
684.8	2.581
685.0	2.558
685.2	2.547
685.4	2.520
685.6	2.552
685.8	2.524
686.0	2.524
686.2	2.539
686.4	2.538
686.6	2.514
686.8	2.511
687.0	2.452
687.2	2.450
687.4	2.437
687.6	2.460
687.8	2.473
688.0	2.464
688.2	2.452
688.4	2.507
688.6	2.513
688.8	2.516
689.0	2.471
689.2	2.408
689.4	2.390
689.6	2.444
689.8	2.461
690.0	2.435
690.2	2.373
690.4	2.386
690.6	2.429
690.8	2.458
691.0	2.443
691.2	2.396
691.4	2.392
691.6	2.420
691.8	2.447
692.0	2.447
692.2	2.421
692.4	2.384
692.6	2.364
692.8	2.345
693.0	2.370
693.2	2.373
693.4	2.362
693.6	2.388
693.8	2.402
694.0	2.465
694.2	2.490
694.4	2.487
694.6	2.436
694.8	2.439
695.0	2.392
695.2	2.415
695.4	2.373
695.6	2.428
695.8	2.442
696.0	2.449
696.2	2.457
696.4	2.484
696.6	2.434
696.8	2.459
697.0	2.424
697.2	2.376
697.4	2.406
697.6	2.387
697.8	2.399
698.0	2.394
698.2	2.374
698.4	2.403
698.6	2.436
698.8	2.425
699.0	2.456
699.2	2.412
699.4	2.375
699.6	2.383
699.8	2.401
700.0	2.415

