Sample:	'20211010A(EM)
File name:	B-NI 10 1000.FDS
Run date:	'11:22:21, 06/20/2023
Operator:	Administrator
Comment:	'

Instrument
Model:	F-4700 FL Spectrophotometer
Serial number:	2019-001
ROM Version:	5J24010 00

Instrument parameters
Measurement type:	Wavelength scan
Scan mode:	Emission
Data mode:	Fluorescence
EX WL:	350.0 nm
EM  Start WL:	370.0 nm
EM  End WL:	700.0 nm
Scan speed:	1200 nm/min
Delay:	0.0 s
EX Slit:	10.0 nm
EM Slit:	10.0 nm
PMT Voltage:	305 V
Response:	0.002 s
Corrected spectra:	Off
Shutter control:	On

Processing performed
Savitsky-Golay smoothed
Smoothing order:	3
Number of points:	7
Number of times:	1

Peak integration
Integration method:	Rectangular
Sensitivity:	1
Threshold:	1.000

Peaks
No.	Start(nm)	Apex(nm)	End(nm)	Height(Data)	Valley(nm)	Valley(Data)
1	370.0	436.4	437.0	6390	437.0	6364
2	437.0	438.4	700.0	6404	700.0	3.017

Data points
nm	Data
370.0	18.64
370.2	19.38
370.4	20.06
370.6	20.68
370.8	21.22
371.0	21.79
371.2	22.36
371.4	22.95
371.6	23.60
371.8	24.27
372.0	25.04
372.2	25.82
372.4	26.43
372.6	27.15
372.8	27.81
373.0	28.49
373.2	29.65
373.4	30.74
373.6	31.71
373.8	32.63
374.0	33.46
374.2	34.31
374.4	35.45
374.6	36.60
374.8	37.89
375.0	39.28
375.2	40.75
375.4	42.09
375.6	43.22
375.8	44.53
376.0	45.92
376.2	47.46
376.4	49.02
376.6	50.72
376.8	52.24
377.0	53.91
377.2	55.55
377.4	57.31
377.6	59.35
377.8	61.63
378.0	63.80
378.2	65.74
378.4	67.87
378.6	70.31
378.8	72.76
379.0	75.54
379.2	78.10
379.4	80.90
379.6	83.62
379.8	86.66
380.0	89.87
380.2	93.23
380.4	96.52
380.6	99.74
380.8	102.8
381.0	106.0
381.2	109.8
381.4	113.8
381.6	117.8
381.8	121.7
382.0	126.3
382.2	130.8
382.4	135.3
382.6	140.0
382.8	144.4
383.0	149.3
383.2	154.6
383.4	159.6
383.6	165.0
383.8	170.9
384.0	176.6
384.2	182.7
384.4	189.3
384.6	196.0
384.8	203.4
385.0	210.7
385.2	217.6
385.4	224.3
385.6	231.3
385.8	239.5
386.0	248.0
386.2	257.4
386.4	266.6
386.6	275.2
386.8	283.5
387.0	292.7
387.2	301.6
387.4	312.5
387.6	322.7
387.8	332.9
388.0	343.4
388.2	355.3
388.4	367.0
388.6	379.9
388.8	391.5
389.0	403.8
389.2	417.0
389.4	431.9
389.6	445.8
389.8	459.7
390.0	473.2
390.2	487.3
390.4	501.3
390.6	517.2
390.8	533.1
391.0	550.9
391.2	568.7
391.4	586.4
391.6	603.1
391.8	619.4
392.0	635.8
392.2	655.2
392.4	672.5
392.6	689.9
392.8	708.7
393.0	726.8
393.2	746.3
393.4	767.6
393.6	788.9
393.8	810.5
394.0	834.0
394.2	856.2
394.4	879.7
394.6	904.0
394.8	928.5
395.0	953.2
395.2	977.6
395.4	1002
395.6	1028
395.8	1057
396.0	1084
396.2	1112
396.4	1140
396.6	1166
396.8	1192
397.0	1221
397.2	1246
397.4	1276
397.6	1306
397.8	1336
398.0	1367
398.2	1400
398.4	1431
398.6	1465
398.8	1495
399.0	1529
399.2	1562
399.4	1598
399.6	1631
399.8	1665
400.0	1699
400.2	1737
400.4	1773
400.6	1810
400.8	1848
401.0	1883
401.2	1919
401.4	1953
401.6	1987
401.8	2021
402.0	2061
402.2	2100
402.4	2136
402.6	2174
402.8	2211
403.0	2247
403.2	2288
403.4	2324
403.6	2365
403.8	2405
404.0	2444
404.2	2482
404.4	2518
404.6	2555
404.8	2597
405.0	2636
405.2	2678
405.4	2721
405.6	2759
405.8	2797
406.0	2833
406.2	2873
406.4	2915
406.6	2958
406.8	2999
407.0	3042
407.2	3082
407.4	3125
407.6	3159
407.8	3197
408.0	3234
408.2	3276
408.4	3319
408.6	3365
408.8	3401
409.0	3435
409.2	3469
409.4	3505
409.6	3550
409.8	3599
410.0	3639
410.2	3678
410.4	3714
410.6	3749
410.8	3791
411.0	3831
411.2	3869
411.4	3908
411.6	3945
411.8	3982
412.0	4015
412.2	4054
412.4	4097
412.6	4136
412.8	4174
413.0	4210
413.2	4239
413.4	4272
413.6	4303
413.8	4331
414.0	4365
414.2	4404
414.4	4442
414.6	4481
414.8	4518
415.0	4552
415.2	4585
415.4	4617
415.6	4643
415.8	4666
416.0	4699
416.2	4736
416.4	4774
416.6	4814
416.8	4848
417.0	4870
417.2	4887
417.4	4911
417.6	4942
417.8	4972
418.0	5003
418.2	5041
418.4	5070
418.6	5100
418.8	5129
419.0	5150
419.2	5175
419.4	5211
419.6	5246
419.8	5276
420.0	5295
420.2	5319
420.4	5340
420.6	5358
420.8	5377
421.0	5411
421.2	5436
421.4	5467
421.6	5495
421.8	5509
422.0	5523
422.2	5560
422.4	5589
422.6	5615
422.8	5648
423.0	5663
423.2	5675
423.4	5689
423.6	5709
423.8	5734
424.0	5758
424.2	5767
424.4	5773
424.6	5774
424.8	5794
425.0	5832
425.2	5866
425.4	5896
425.6	5915
425.8	5926
426.0	5941
426.2	5959
426.4	5971
426.6	5994
426.8	6005
427.0	6021
427.2	6040
427.4	6055
427.6	6070
427.8	6088
428.0	6087
428.2	6096
428.4	6107
428.6	6122
428.8	6134
429.0	6148
429.2	6160
429.4	6170
429.6	6180
429.8	6195
430.0	6210
430.2	6223
430.4	6232
430.6	6233
430.8	6236
431.0	6255
431.2	6266
431.4	6270
431.6	6271
431.8	6285
432.0	6284
432.2	6294
432.4	6304
432.6	6318
432.8	6337
433.0	6342
433.2	6331
433.4	6332
433.6	6338
433.8	6353
434.0	6371
434.2	6372
434.4	6374
434.6	6380
434.8	6373
435.0	6377
435.2	6379
435.4	6386
435.6	6386
435.8	6382
436.0	6384
436.2	6389
436.4	6390
436.6	6374
436.8	6369
437.0	6364
437.2	6371
437.4	6383
437.6	6386
437.8	6381
438.0	6393
438.2	6394
438.4	6404
438.6	6400
438.8	6388
439.0	6384
439.2	6375
439.4	6365
439.6	6373
439.8	6373
440.0	6370
440.2	6357
440.4	6340
440.6	6319
440.8	6303
441.0	6311
441.2	6314
441.4	6314
441.6	6301
441.8	6291
442.0	6274
442.2	6273
442.4	6265
442.6	6256
442.8	6236
443.0	6227
443.2	6221
443.4	6222
443.6	6219
443.8	6206
444.0	6192
444.2	6175
444.4	6165
444.6	6158
444.8	6151
445.0	6147
445.2	6136
445.4	6121
445.6	6105
445.8	6092
446.0	6084
446.2	6071
446.4	6051
446.6	6033
446.8	6019
447.0	6015
447.2	6016
447.4	6011
447.6	6006
447.8	5993
448.0	5976
448.2	5957
448.4	5940
448.6	5924
448.8	5908
449.0	5899
449.2	5886
449.4	5865
449.6	5852
449.8	5827
450.0	5814
450.2	5804
450.4	5789
450.6	5764
450.8	5744
451.0	5725
451.2	5710
451.4	5688
451.6	5684
451.8	5677
452.0	5668
452.2	5663
452.4	5645
452.6	5627
452.8	5600
453.0	5580
453.2	5568
453.4	5557
453.6	5549
453.8	5539
454.0	5506
454.2	5490
454.4	5470
454.6	5451
454.8	5438
455.0	5429
455.2	5406
455.4	5392
455.6	5368
455.8	5345
456.0	5330
456.2	5320
456.4	5299
456.6	5275
456.8	5250
457.0	5236
457.2	5230
457.4	5227
457.6	5214
457.8	5191
458.0	5168
458.2	5146
458.4	5117
458.6	5097
458.8	5080
459.0	5069
459.2	5057
459.4	5042
459.6	5018
459.8	4998
460.0	4978
460.2	4962
460.4	4943
460.6	4924
460.8	4901
461.0	4875
461.2	4851
461.4	4829
461.6	4815
461.8	4801
462.0	4789
462.2	4777
462.4	4762
462.6	4742
462.8	4723
463.0	4701
463.2	4678
463.4	4662
463.6	4647
463.8	4633
464.0	4615
464.2	4591
464.4	4562
464.6	4540
464.8	4524
465.0	4513
465.2	4505
465.4	4490
465.6	4473
465.8	4452
466.0	4425
466.2	4402
466.4	4379
466.6	4355
466.8	4337
467.0	4319
467.2	4304
467.4	4292
467.6	4276
467.8	4255
468.0	4235
468.2	4212
468.4	4194
468.6	4170
468.8	4151
469.0	4125
469.2	4109
469.4	4099
469.6	4091
469.8	4071
470.0	4050
470.2	4019
470.4	3993
470.6	3976
470.8	3959
471.0	3939
471.2	3924
471.4	3906
471.6	3891
471.8	3882
472.0	3866
472.2	3847
472.4	3830
472.6	3807
472.8	3789
473.0	3769
473.2	3747
473.4	3726
473.6	3706
473.8	3687
474.0	3671
474.2	3652
474.4	3637
474.6	3622
474.8	3607
475.0	3588
475.2	3571
475.4	3549
475.6	3529
475.8	3510
476.0	3491
476.2	3472
476.4	3461
476.6	3447
476.8	3432
477.0	3414
477.2	3389
477.4	3371
477.6	3355
477.8	3342
478.0	3328
478.2	3312
478.4	3293
478.6	3274
478.8	3258
479.0	3243
479.2	3228
479.4	3212
479.6	3198
479.8	3186
480.0	3171
480.2	3155
480.4	3137
480.6	3118
480.8	3101
481.0	3083
481.2	3064
481.4	3051
481.6	3040
481.8	3026
482.0	3009
482.2	2991
482.4	2976
482.6	2964
482.8	2951
483.0	2937
483.2	2919
483.4	2904
483.6	2891
483.8	2876
484.0	2862
484.2	2849
484.4	2836
484.6	2824
484.8	2813
485.0	2797
485.2	2782
485.4	2764
485.6	2749
485.8	2730
486.0	2714
486.2	2699
486.4	2687
486.6	2675
486.8	2662
487.0	2648
487.2	2635
487.4	2622
487.6	2612
487.8	2601
488.0	2589
488.2	2575
488.4	2559
488.6	2544
488.8	2531
489.0	2520
489.2	2508
489.4	2494
489.6	2477
489.8	2464
490.0	2451
490.2	2435
490.4	2422
490.6	2407
490.8	2391
491.0	2380
491.2	2367
491.4	2351
491.6	2342
491.8	2328
492.0	2318
492.2	2306
492.4	2291
492.6	2275
492.8	2265
493.0	2254
493.2	2244
493.4	2231
493.6	2220
493.8	2206
494.0	2194
494.2	2183
494.4	2171
494.6	2157
494.8	2144
495.0	2132
495.2	2119
495.4	2110
495.6	2099
495.8	2084
496.0	2070
496.2	2057
496.4	2046
496.6	2035
496.8	2026
497.0	2012
497.2	1998
497.4	1983
497.6	1972
497.8	1961
498.0	1954
498.2	1943
498.4	1931
498.6	1917
498.8	1905
499.0	1895
499.2	1884
499.4	1875
499.6	1863
499.8	1851
500.0	1842
500.2	1832
500.4	1821
500.6	1810
500.8	1797
501.0	1785
501.2	1773
501.4	1763
501.6	1750
501.8	1737
502.0	1726
502.2	1715
502.4	1704
502.6	1696
502.8	1688
503.0	1679
503.2	1673
503.4	1662
503.6	1651
503.8	1639
504.0	1628
504.2	1615
504.4	1605
504.6	1594
504.8	1584
505.0	1574
505.2	1566
505.4	1556
505.6	1548
505.8	1540
506.0	1528
506.2	1518
506.4	1508
506.6	1499
506.8	1490
507.0	1479
507.2	1468
507.4	1458
507.6	1450
507.8	1443
508.0	1435
508.2	1426
508.4	1417
508.6	1405
508.8	1396
509.0	1388
509.2	1380
509.4	1372
509.6	1363
509.8	1352
510.0	1344
510.2	1334
510.4	1326
510.6	1318
510.8	1311
511.0	1304
511.2	1294
511.4	1283
511.6	1273
511.8	1264
512.0	1257
512.2	1251
512.4	1244
512.6	1236
512.8	1229
513.0	1222
513.2	1215
513.4	1209
513.6	1201
513.8	1190
514.0	1180
514.2	1172
514.4	1165
514.6	1159
514.8	1152
515.0	1142
515.2	1133
515.4	1125
515.6	1120
515.8	1116
516.0	1110
516.2	1104
516.4	1096
516.6	1088
516.8	1080
517.0	1071
517.2	1063
517.4	1054
517.6	1048
517.8	1043
518.0	1037
518.2	1031
518.4	1026
518.6	1018
518.8	1010
519.0	1001
519.2	994.8
519.4	989.7
519.6	983.1
519.8	975.9
520.0	967.7
520.2	959.9
520.4	954.0
520.6	948.2
520.8	941.5
521.0	935.8
521.2	929.7
521.4	923.2
521.6	916.7
521.8	911.6
522.0	906.5
522.2	902.5
522.4	896.4
522.6	888.7
522.8	881.8
523.0	875.9
523.2	870.6
523.4	864.2
523.6	858.6
523.8	852.3
524.0	847.3
524.2	842.6
524.4	837.1
524.6	830.4
524.8	826.2
525.0	820.2
525.2	815.3
525.4	810.3
525.6	804.2
525.8	798.8
526.0	793.6
526.2	787.8
526.4	783.0
526.6	777.3
526.8	771.7
527.0	765.6
527.2	759.4
527.4	754.6
527.6	750.8
527.8	746.8
528.0	742.8
528.2	737.1
528.4	731.0
528.6	724.7
528.8	720.1
529.0	716.2
529.2	713.3
529.4	709.1
529.6	704.8
529.8	699.5
530.0	694.1
530.2	688.3
530.4	683.9
530.6	679.5
530.8	675.5
531.0	671.6
531.2	667.5
531.4	663.7
531.6	659.2
531.8	652.9
532.0	647.3
532.2	642.1
532.4	638.9
532.6	636.4
532.8	632.9
533.0	627.5
533.2	623.2
533.4	618.8
533.6	614.4
533.8	610.9
534.0	607.0
534.2	602.1
534.4	598.4
534.6	594.8
534.8	590.4
535.0	586.8
535.2	583.6
535.4	579.4
535.6	575.4
535.8	571.0
536.0	567.4
536.2	562.7
536.4	559.1
536.6	555.5
536.8	551.3
537.0	547.1
537.2	543.6
537.4	540.3
537.6	537.2
537.8	534.0
538.0	530.1
538.2	525.5
538.4	520.9
538.6	517.4
538.8	514.4
539.0	510.9
539.2	508.6
539.4	505.4
539.6	502.2
539.8	498.0
540.0	494.4
540.2	490.4
540.4	487.8
540.6	485.2
540.8	482.7
541.0	479.3
541.2	475.8
541.4	472.3
541.6	468.4
541.8	464.9
542.0	461.6
542.2	458.1
542.4	455.0
542.6	451.9
542.8	448.6
543.0	445.2
543.2	442.2
543.4	439.4
543.6	436.5
543.8	433.7
544.0	430.8
544.2	427.6
544.4	424.9
544.6	421.7
544.8	418.5
545.0	415.5
545.2	412.4
545.4	409.4
545.6	407.5
545.8	404.8
546.0	402.7
546.2	399.9
546.4	397.4
546.6	393.5
546.8	390.8
547.0	387.3
547.2	384.6
547.4	382.2
547.6	380.7
547.8	377.7
548.0	375.0
548.2	370.8
548.4	368.5
548.6	366.4
548.8	364.9
549.0	362.9
549.2	360.7
549.4	357.5
549.6	355.1
549.8	352.5
550.0	349.8
550.2	346.4
550.4	344.2
550.6	341.2
550.8	338.8
551.0	337.1
551.2	335.4
551.4	332.8
551.6	330.3
551.8	327.2
552.0	324.5
552.2	322.7
552.4	321.0
552.6	319.0
552.8	316.8
553.0	314.2
553.2	311.6
553.4	309.6
553.6	307.8
553.8	306.0
554.0	304.7
554.2	302.0
554.4	299.4
554.6	297.2
554.8	294.6
555.0	292.9
555.2	291.8
555.4	289.9
555.6	287.8
555.8	285.5
556.0	282.7
556.2	280.8
556.4	279.1
556.6	277.4
556.8	275.5
557.0	273.8
557.2	271.7
557.4	269.3
557.6	267.1
557.8	265.1
558.0	263.4
558.2	262.3
558.4	260.6
558.6	259.0
558.8	256.9
559.0	254.3
559.2	251.8
559.4	250.1
559.6	249.0
559.8	248.0
560.0	246.2
560.2	244.5
560.4	242.0
560.6	240.1
560.8	238.8
561.0	237.0
561.2	235.4
561.4	233.9
561.6	232.5
561.8	230.8
562.0	229.2
562.2	227.5
562.4	225.8
562.6	223.3
562.8	221.8
563.0	220.2
563.2	219.3
563.4	218.7
563.6	218.0
563.8	215.9
564.0	213.6
564.2	211.1
564.4	209.8
564.6	208.8
564.8	207.9
565.0	206.3
565.2	204.5
565.4	202.7
565.6	201.7
565.8	200.4
566.0	199.1
566.2	197.9
566.4	196.1
566.6	194.6
566.8	193.2
567.0	191.7
567.2	191.0
567.4	189.9
567.6	188.6
567.8	187.2
568.0	185.5
568.2	183.9
568.4	182.5
568.6	181.2
568.8	180.0
569.0	178.7
569.2	177.4
569.4	176.3
569.6	174.8
569.8	173.7
570.0	172.5
570.2	171.4
570.4	170.3
570.6	169.4
570.8	168.2
571.0	167.0
571.2	165.4
571.4	164.1
571.6	162.6
571.8	161.5
572.0	160.5
572.2	159.8
572.4	158.6
572.6	157.8
572.8	156.7
573.0	155.5
573.2	154.5
573.4	153.5
573.6	152.1
573.8	151.0
574.0	150.0
574.2	149.0
574.4	148.4
574.6	147.3
574.8	146.0
575.0	144.9
575.2	144.0
575.4	142.9
575.6	141.7
575.8	140.3
576.0	139.0
576.2	138.2
576.4	137.6
576.6	136.9
576.8	135.9
577.0	134.9
577.2	134.2
577.4	133.5
577.6	132.6
577.8	131.7
578.0	130.5
578.2	129.4
578.4	128.6
578.6	127.5
578.8	127.1
579.0	126.4
579.2	125.6
579.4	124.7
579.6	123.7
579.8	122.6
580.0	122.0
580.2	120.9
580.4	120.0
580.6	119.1
580.8	118.6
581.0	117.6
581.2	116.8
581.4	115.7
581.6	114.7
581.8	114.0
582.0	113.7
582.2	112.6
582.4	111.9
582.6	111.3
582.8	110.9
583.0	110.5
583.2	109.8
583.4	108.7
583.6	107.5
583.8	106.5
584.0	105.7
584.2	104.9
584.4	104.0
584.6	103.6
584.8	102.8
585.0	102.2
585.2	101.8
585.4	101.1
585.6	100.3
585.8	99.55
586.0	98.36
586.2	97.66
586.4	97.30
586.6	97.05
586.8	96.82
587.0	96.45
587.2	95.38
587.4	94.37
587.6	93.20
587.8	92.35
588.0	91.62
588.2	91.07
588.4	90.61
588.6	90.17
588.8	89.71
589.0	88.99
589.2	88.11
589.4	87.19
589.6	86.71
589.8	86.25
590.0	86.05
590.2	85.58
590.4	84.97
590.6	84.17
590.8	83.50
591.0	83.09
591.2	82.47
591.4	81.65
591.6	80.93
591.8	80.50
592.0	80.05
592.2	79.67
592.4	79.27
592.6	78.45
592.8	77.92
593.0	77.56
593.2	76.82
593.4	76.06
593.6	75.72
593.8	75.19
594.0	74.86
594.2	74.49
594.4	73.66
594.6	73.03
594.8	72.56
595.0	72.06
595.2	71.67
595.4	71.52
595.6	71.00
595.8	70.63
596.0	70.23
596.2	69.64
596.4	68.92
596.6	68.45
596.8	67.97
597.0	67.44
597.2	66.78
597.4	66.39
597.6	65.87
597.8	65.65
598.0	65.38
598.2	64.79
598.4	63.95
598.6	63.81
598.8	63.58
599.0	63.56
599.2	63.17
599.4	62.52
599.6	61.89
599.8	61.82
600.0	61.42
600.2	61.11
600.4	60.21
600.6	59.44
600.8	58.82
601.0	58.89
601.2	58.73
601.4	58.27
601.6	57.50
601.8	56.99
602.0	56.50
602.2	56.61
602.4	56.45
602.6	55.93
602.8	55.39
603.0	54.97
603.2	54.48
603.4	54.28
603.6	53.66
603.8	53.23
604.0	52.91
604.2	52.78
604.4	52.51
604.6	52.36
604.8	51.61
605.0	51.06
605.2	50.66
605.4	50.48
605.6	50.30
605.8	50.15
606.0	49.77
606.2	49.35
606.4	48.94
606.6	48.78
606.8	48.39
607.0	47.78
607.2	47.37
607.4	46.93
607.6	46.70
607.8	46.70
608.0	46.46
608.2	46.01
608.4	45.77
608.6	45.34
608.8	44.90
609.0	44.53
609.2	44.05
609.4	43.66
609.6	43.37
609.8	43.14
610.0	43.03
610.2	43.05
610.4	42.65
610.6	42.37
610.8	41.85
611.0	41.59
611.2	41.42
611.4	41.16
611.6	40.66
611.8	40.46
612.0	40.13
612.2	39.88
612.4	39.50
612.6	39.11
612.8	38.86
613.0	38.95
613.2	38.89
613.4	38.59
613.6	38.13
613.8	37.68
614.0	37.49
614.2	37.25
614.4	37.04
614.6	36.73
614.8	36.45
615.0	36.09
615.2	36.00
615.4	35.67
615.6	35.37
615.8	35.06
616.0	34.73
616.2	34.39
616.4	34.35
616.6	34.24
616.8	33.96
617.0	33.72
617.2	33.41
617.4	33.01
617.6	32.69
617.8	32.63
618.0	32.48
618.2	32.42
618.4	32.31
618.6	32.21
618.8	32.05
619.0	31.84
619.2	31.56
619.4	31.22
619.6	30.87
619.8	30.65
620.0	30.43
620.2	30.12
620.4	29.88
620.6	29.75
620.8	29.58
621.0	29.29
621.2	29.02
621.4	28.79
621.6	28.55
621.8	28.38
622.0	28.21
622.2	28.12
622.4	28.04
622.6	27.97
622.8	27.70
623.0	27.31
623.2	27.02
623.4	26.84
623.6	26.67
623.8	26.58
624.0	26.37
624.2	26.03
624.4	25.88
624.6	25.81
624.8	25.67
625.0	25.57
625.2	25.38
625.4	24.94
625.6	24.85
625.8	24.75
626.0	24.55
626.2	24.44
626.4	24.34
626.6	24.10
626.8	24.14
627.0	24.01
627.2	23.73
627.4	23.49
627.6	23.40
627.8	23.21
628.0	23.02
628.2	22.78
628.4	22.57
628.6	22.36
628.8	22.31
629.0	22.05
629.2	21.87
629.4	21.78
629.6	21.70
629.8	21.56
630.0	21.36
630.2	21.08
630.4	20.95
630.6	20.86
630.8	20.72
631.0	20.66
631.2	20.47
631.4	20.34
631.6	20.09
631.8	19.87
632.0	19.71
632.2	19.64
632.4	19.64
632.6	19.62
632.8	19.34
633.0	19.12
633.2	19.01
633.4	18.82
633.6	18.91
633.8	18.82
634.0	18.62
634.2	18.46
634.4	18.36
634.6	18.21
634.8	18.11
635.0	18.00
635.2	17.86
635.4	17.80
635.6	17.73
635.8	17.58
636.0	17.43
636.2	17.34
636.4	17.23
636.6	17.21
636.8	17.06
637.0	16.85
637.2	16.74
637.4	16.69
637.6	16.71
637.8	16.68
638.0	16.50
638.2	16.22
638.4	15.99
638.6	15.93
638.8	15.84
639.0	15.77
639.2	15.65
639.4	15.49
639.6	15.32
639.8	15.23
640.0	15.05
640.2	14.91
640.4	14.73
640.6	14.52
640.8	14.50
641.0	14.51
641.2	14.44
641.4	14.40
641.6	14.27
641.8	14.13
642.0	14.08
642.2	13.87
642.4	13.60
642.6	13.54
642.8	13.51
643.0	13.61
643.2	13.60
643.4	13.56
643.6	13.52
643.8	13.48
644.0	13.34
644.2	13.18
644.4	12.97
644.6	12.87
644.8	12.77
645.0	12.74
645.2	12.69
645.4	12.59
645.6	12.53
645.8	12.35
646.0	12.23
646.2	12.22
646.4	12.12
646.6	12.09
646.8	12.01
647.0	11.94
647.2	11.96
647.4	11.88
647.6	11.77
647.8	11.69
648.0	11.46
648.2	11.47
648.4	11.51
648.6	11.46
648.8	11.41
649.0	11.34
649.2	11.12
649.4	11.05
649.6	11.04
649.8	10.92
650.0	10.88
650.2	10.80
650.4	10.65
650.6	10.64
650.8	10.61
651.0	10.59
651.2	10.62
651.4	10.49
651.6	10.32
651.8	10.19
652.0	10.06
652.2	10.01
652.4	9.983
652.6	9.863
652.8	9.769
653.0	9.715
653.2	9.764
653.4	9.828
653.6	9.800
653.8	9.768
654.0	9.707
654.2	9.574
654.4	9.440
654.6	9.246
654.8	9.127
655.0	9.120
655.2	9.080
655.4	9.060
655.6	8.997
655.8	8.857
656.0	8.743
656.2	8.714
656.4	8.605
656.6	8.578
656.8	8.573
657.0	8.623
657.2	8.617
657.4	8.632
657.6	8.550
657.8	8.422
658.0	8.359
658.2	8.372
658.4	8.379
658.6	8.334
658.8	8.205
659.0	8.046
659.2	8.032
659.4	8.057
659.6	8.076
659.8	8.051
660.0	7.920
660.2	7.774
660.4	7.753
660.6	7.784
660.8	7.740
661.0	7.641
661.2	7.565
661.4	7.475
661.6	7.424
661.8	7.414
662.0	7.328
662.2	7.277
662.4	7.276
662.6	7.283
662.8	7.262
663.0	7.262
663.2	7.151
663.4	7.027
663.6	6.952
663.8	6.863
664.0	6.752
664.2	6.840
664.4	6.870
664.6	6.819
664.8	6.813
665.0	6.716
665.2	6.608
665.4	6.618
665.6	6.547
665.8	6.507
666.0	6.457
666.2	6.456
666.4	6.459
666.6	6.483
666.8	6.373
667.0	6.278
667.2	6.190
667.4	6.178
667.6	6.192
667.8	6.217
668.0	6.165
668.2	6.137
668.4	6.214
668.6	6.218
668.8	6.257
669.0	6.083
669.2	5.929
669.4	5.843
669.6	5.827
669.8	5.777
670.0	5.855
670.2	5.834
670.4	5.825
670.6	5.797
670.8	5.716
671.0	5.598
671.2	5.607
671.4	5.558
671.6	5.570
671.8	5.556
672.0	5.485
672.2	5.384
672.4	5.395
672.6	5.323
672.8	5.332
673.0	5.298
673.2	5.264
673.4	5.216
673.6	5.236
673.8	5.222
674.0	5.198
674.2	5.115
674.4	5.165
674.6	5.163
674.8	5.157
675.0	5.119
675.2	5.121
675.4	5.004
675.6	5.019
675.8	5.005
676.0	4.971
676.2	4.917
676.4	4.892
676.6	4.802
676.8	4.817
677.0	4.779
677.2	4.737
677.4	4.695
677.6	4.637
677.8	4.618
678.0	4.620
678.2	4.590
678.4	4.619
678.6	4.582
678.8	4.562
679.0	4.559
679.2	4.501
679.4	4.466
679.6	4.436
679.8	4.312
680.0	4.328
680.2	4.404
680.4	4.423
680.6	4.443
680.8	4.406
681.0	4.348
681.2	4.335
681.4	4.301
681.6	4.174
681.8	4.167
682.0	4.142
682.2	4.154
682.4	4.159
682.6	4.139
682.8	4.071
683.0	4.099
683.2	4.073
683.4	4.028
683.6	4.007
683.8	3.981
684.0	3.995
684.2	3.998
684.4	4.000
684.6	3.977
684.8	3.945
685.0	3.937
685.2	3.901
685.4	3.818
685.6	3.795
685.8	3.772
686.0	3.728
686.2	3.772
686.4	3.788
686.6	3.799
686.8	3.813
687.0	3.768
687.2	3.653
687.4	3.644
687.6	3.695
687.8	3.777
688.0	3.814
688.2	3.768
688.4	3.637
688.6	3.548
688.8	3.522
689.0	3.491
689.2	3.531
689.4	3.542
689.6	3.476
689.8	3.437
690.0	3.446
690.2	3.425
690.4	3.445
690.6	3.413
690.8	3.474
691.0	3.465
691.2	3.493
691.4	3.492
691.6	3.422
691.8	3.406
692.0	3.492
692.2	3.442
692.4	3.428
692.6	3.394
692.8	3.322
693.0	3.310
693.2	3.265
693.4	3.216
693.6	3.232
693.8	3.259
694.0	3.314
694.2	3.308
694.4	3.282
694.6	3.256
694.8	3.229
695.0	3.228
695.2	3.254
695.4	3.251
695.6	3.266
695.8	3.301
696.0	3.274
696.2	3.271
696.4	3.201
696.6	3.159
696.8	3.129
697.0	3.142
697.2	3.138
697.4	3.186
697.6	3.182
697.8	3.158
698.0	3.164
698.2	3.128
698.4	3.116
698.6	3.056
698.8	3.017
699.0	2.997
699.2	3.025
699.4	3.040
699.6	3.077
699.8	3.080
700.0	3.017

