Sample:	'20211010A(EM)
File name:	G-NI 7.FDS
Run date:	'16:54:15, 06/19/2023
Operator:	Administrator
Comment:	'

Instrument
Model:	F-4700 FL Spectrophotometer
Serial number:	2019-001
ROM Version:	5J24010 00

Instrument parameters
Measurement type:	Wavelength scan
Scan mode:	Emission
Data mode:	Fluorescence
EX WL:	400.0 nm
EM  Start WL:	420.0 nm
EM  End WL:	800.0 nm
Scan speed:	1200 nm/min
Delay:	0.0 s
EX Slit:	10.0 nm
EM Slit:	10.0 nm
PMT Voltage:	500 V
Response:	0.002 s
Corrected spectra:	Off
Shutter control:	On

Processing performed
Savitsky-Golay smoothed
Smoothing order:	3
Number of points:	7
Number of times:	1

Peak integration
Integration method:	Rectangular
Sensitivity:	1
Threshold:	1.000

Peaks
No.	Start(nm)	Apex(nm)	End(nm)	Height(Data)	Valley(nm)	Valley(Data)
1	420.0	533.4	534.0	311.2	534.0	307.7
2	534.0	535.8	537.2	315.9	537.2	311.0
3	537.2	538.8	540.2	318.5	540.2	314.2
4	540.2	541.0	542.8	319.1	542.8	313.2
5	542.8	543.6	545.0	315.8	545.0	308.7
6	545.0	545.8	547.0	313.6	547.0	304.4
7	547.0	548.0	551.8	309.2	551.8	293.0
8	551.8	552.6	570.8	300.8	570.8	233.9
9	570.8	571.4	639.2	235.6	639.2	46.09
10	639.2	639.8	664.4	47.25	664.4	20.87
11	664.4	664.8	678.2	22.09	678.2	12.94
12	678.2	679.2	774.8	14.04	774.8	0.615

Data points
nm	Data
420.0	0.478
420.2	0.592
420.4	0.642
420.6	0.634
420.8	0.545
421.0	0.437
421.2	0.388
421.4	0.415
421.6	0.471
421.8	0.487
422.0	0.558
422.2	0.622
422.4	0.606
422.6	0.610
422.8	0.615
423.0	0.570
423.2	0.647
423.4	0.676
423.6	0.517
423.8	0.482
424.0	0.501
424.2	0.517
424.4	0.696
424.6	0.716
424.8	0.544
425.0	0.519
425.2	0.403
425.4	0.370
425.6	0.480
425.8	0.540
426.0	0.537
426.2	0.583
426.4	0.604
426.6	0.569
426.8	0.481
427.0	0.435
427.2	0.411
427.4	0.464
427.6	0.541
427.8	0.517
428.0	0.387
428.2	0.356
428.4	0.373
428.6	0.483
428.8	0.523
429.0	0.465
429.2	0.429
429.4	0.480
429.6	0.420
429.8	0.544
430.0	0.512
430.2	0.603
430.4	0.604
430.6	0.671
430.8	0.638
431.0	0.724
431.2	0.648
431.4	0.645
431.6	0.527
431.8	0.499
432.0	0.501
432.2	0.512
432.4	0.508
432.6	0.498
432.8	0.478
433.0	0.434
433.2	0.457
433.4	0.478
433.6	0.549
433.8	0.599
434.0	0.536
434.2	0.440
434.4	0.431
434.6	0.415
434.8	0.448
435.0	0.475
435.2	0.458
435.4	0.442
435.6	0.519
435.8	0.540
436.0	0.554
436.2	0.562
436.4	0.557
436.6	0.455
436.8	0.404
437.0	0.369
437.2	0.434
437.4	0.402
437.6	0.558
437.8	0.511
438.0	0.491
438.2	0.523
438.4	0.552
438.6	0.464
438.8	0.485
439.0	0.423
439.2	0.486
439.4	0.558
439.6	0.606
439.8	0.686
440.0	0.678
440.2	0.587
440.4	0.543
440.6	0.441
440.8	0.380
441.0	0.495
441.2	0.528
441.4	0.547
441.6	0.548
441.8	0.602
442.0	0.556
442.2	0.643
442.4	0.598
442.6	0.543
442.8	0.500
443.0	0.440
443.2	0.342
443.4	0.450
443.6	0.591
443.8	0.613
444.0	0.579
444.2	0.483
444.4	0.345
444.6	0.326
444.8	0.464
445.0	0.562
445.2	0.594
445.4	0.575
445.6	0.500
445.8	0.403
446.0	0.403
446.2	0.460
446.4	0.515
446.6	0.550
446.8	0.649
447.0	0.664
447.2	0.659
447.4	0.680
447.6	0.667
447.8	0.596
448.0	0.579
448.2	0.509
448.4	0.401
448.6	0.401
448.8	0.461
449.0	0.483
449.2	0.549
449.4	0.530
449.6	0.512
449.8	0.469
450.0	0.478
450.2	0.560
450.4	0.471
450.6	0.416
450.8	0.399
451.0	0.334
451.2	0.371
451.4	0.504
451.6	0.383
451.8	0.317
452.0	0.305
452.2	0.297
452.4	0.388
452.6	0.476
452.8	0.498
453.0	0.505
453.2	0.535
453.4	0.411
453.6	0.439
453.8	0.424
454.0	0.450
454.2	0.461
454.4	0.404
454.6	0.322
454.8	0.386
455.0	0.385
455.2	0.441
455.4	0.495
455.6	0.508
455.8	0.563
456.0	0.646
456.2	0.554
456.4	0.471
456.6	0.387
456.8	0.304
457.0	0.310
457.2	0.469
457.4	0.519
457.6	0.535
457.8	0.609
458.0	0.539
458.2	0.479
458.4	0.556
458.6	0.653
458.8	0.698
459.0	0.796
459.2	0.669
459.4	0.483
459.6	0.505
459.8	0.541
460.0	0.606
460.2	0.695
460.4	0.658
460.6	0.555
460.8	0.513
461.0	0.482
461.2	0.471
461.4	0.531
461.6	0.572
461.8	0.511
462.0	0.399
462.2	0.546
462.4	0.587
462.6	0.675
462.8	0.708
463.0	0.548
463.2	0.453
463.4	0.558
463.6	0.530
463.8	0.598
464.0	0.693
464.2	0.634
464.4	0.588
464.6	0.594
464.8	0.536
465.0	0.683
465.2	0.722
465.4	0.656
465.6	0.564
465.8	0.595
466.0	0.580
466.2	0.664
466.4	0.615
466.6	0.653
466.8	0.665
467.0	0.753
467.2	0.739
467.4	0.734
467.6	0.667
467.8	0.766
468.0	0.849
468.2	0.892
468.4	0.728
468.6	0.593
468.8	0.528
469.0	0.632
469.2	0.769
469.4	0.926
469.6	0.986
469.8	0.898
470.0	0.885
470.2	0.892
470.4	0.862
470.6	1.013
470.8	1.131
471.0	1.034
471.2	0.964
471.4	1.015
471.6	0.959
471.8	0.974
472.0	1.098
472.2	1.066
472.4	1.093
472.6	1.213
472.8	1.255
473.0	1.186
473.2	1.176
473.4	1.078
473.6	1.195
473.8	1.228
474.0	1.395
474.2	1.250
474.4	1.358
474.6	1.521
474.8	1.700
475.0	1.787
475.2	1.824
475.4	1.625
475.6	1.691
475.8	1.738
476.0	1.748
476.2	1.957
476.4	1.932
476.6	1.936
476.8	1.977
477.0	2.129
477.2	2.244
477.4	2.197
477.6	2.097
477.8	2.165
478.0	2.187
478.2	2.477
478.4	3.019
478.6	3.153
478.8	3.263
479.0	3.358
479.2	3.266
479.4	3.455
479.6	3.820
479.8	3.748
480.0	3.494
480.2	3.562
480.4	3.624
480.6	3.700
480.8	3.903
481.0	4.092
481.2	4.076
481.4	4.472
481.6	4.492
481.8	4.410
482.0	4.506
482.2	4.835
482.4	5.233
482.6	5.704
482.8	5.861
483.0	6.149
483.2	6.250
483.4	6.534
483.6	6.840
483.8	7.430
484.0	7.338
484.2	7.691
484.4	7.491
484.6	7.846
484.8	7.958
485.0	8.392
485.2	8.120
485.4	8.440
485.6	8.504
485.8	9.225
486.0	9.712
486.2	10.27
486.4	10.44
486.6	11.01
486.8	11.44
487.0	12.12
487.2	12.69
487.4	13.13
487.6	13.08
487.8	13.08
488.0	13.40
488.2	13.63
488.4	14.22
488.6	14.79
488.8	15.53
489.0	15.61
489.2	15.81
489.4	15.87
489.6	16.21
489.8	16.65
490.0	17.59
490.2	18.26
490.4	18.77
490.6	19.65
490.8	20.82
491.0	21.45
491.2	22.22
491.4	23.06
491.6	23.63
491.8	23.96
492.0	24.46
492.2	24.61
492.4	25.06
492.6	25.84
492.8	27.04
493.0	27.95
493.2	28.71
493.4	29.87
493.6	30.99
493.8	31.72
494.0	32.37
494.2	32.68
494.4	32.61
494.6	33.93
494.8	35.15
495.0	36.34
495.2	37.55
495.4	38.38
495.6	39.68
495.8	41.75
496.0	42.94
496.2	43.39
496.4	43.56
496.6	44.10
496.8	45.45
497.0	46.80
497.2	48.37
497.4	49.43
497.6	50.18
497.8	51.26
498.0	53.21
498.2	54.86
498.4	56.19
498.6	58.20
498.8	59.06
499.0	59.97
499.2	61.78
499.4	63.74
499.6	63.64
499.8	64.69
500.0	65.78
500.2	67.03
500.4	69.27
500.6	71.80
500.8	72.57
501.0	74.14
501.2	75.94
501.4	77.60
501.6	79.02
501.8	80.27
502.0	80.66
502.2	81.76
502.4	83.60
502.6	86.14
502.8	88.51
503.0	90.89
503.2	91.26
503.4	91.53
503.6	92.94
503.8	94.73
504.0	98.10
504.2	100.5
504.4	101.9
504.6	103.6
504.8	105.9
505.0	107.6
505.2	110.2
505.4	112.0
505.6	113.0
505.8	115.0
506.0	117.9
506.2	119.2
506.4	122.0
506.6	123.2
506.8	124.1
507.0	125.6
507.2	127.7
507.4	129.8
507.6	131.9
507.8	132.1
508.0	134.2
508.2	136.2
508.4	137.6
508.6	139.7
508.8	141.2
509.0	142.2
509.2	145.9
509.4	149.1
509.6	150.9
509.8	153.5
510.0	157.2
510.2	159.2
510.4	162.9
510.6	163.5
510.8	163.2
511.0	164.0
511.2	165.2
511.4	167.0
511.6	169.7
511.8	171.4
512.0	172.9
512.2	176.5
512.4	179.2
512.6	181.6
512.8	183.2
513.0	183.6
513.2	183.9
513.4	187.8
513.6	190.6
513.8	192.6
514.0	195.8
514.2	197.8
514.4	198.9
514.6	199.0
514.8	200.3
515.0	201.5
515.2	203.4
515.4	206.5
515.6	208.8
515.8	210.6
516.0	213.5
516.2	216.2
516.4	217.1
516.6	218.6
516.8	220.3
517.0	222.8
517.2	224.7
517.4	226.7
517.6	227.5
517.8	228.1
518.0	230.5
518.2	232.8
518.4	235.4
518.6	237.8
518.8	239.6
519.0	239.9
519.2	240.4
519.4	240.0
519.6	242.5
519.8	245.6
520.0	248.5
520.2	250.8
520.4	250.2
520.6	250.1
520.8	250.4
521.0	250.8
521.2	253.7
521.4	256.5
521.6	258.3
521.8	262.4
522.0	262.6
522.2	262.2
522.4	263.7
522.6	263.7
522.8	265.5
523.0	270.0
523.2	273.6
523.4	274.6
523.6	273.7
523.8	272.1
524.0	272.4
524.2	274.3
524.4	276.5
524.6	278.3
524.8	279.8
525.0	279.5
525.2	279.7
525.4	281.4
525.6	281.7
525.8	284.3
526.0	285.8
526.2	285.3
526.4	285.5
526.6	287.5
526.8	287.8
527.0	289.7
527.2	291.1
527.4	292.7
527.6	294.1
527.8	294.2
528.0	294.4
528.2	295.3
528.4	297.6
528.6	298.0
528.8	297.6
529.0	297.3
529.2	297.2
529.4	298.2
529.6	298.6
529.8	298.7
530.0	298.9
530.2	301.5
530.4	301.7
530.6	303.7
530.8	304.3
531.0	304.7
531.2	304.8
531.4	305.4
531.6	306.4
531.8	307.5
532.0	309.2
532.2	309.3
532.4	310.0
532.6	309.9
532.8	309.6
533.0	309.4
533.2	311.0
533.4	311.2
533.6	309.8
533.8	309.1
534.0	307.7
534.2	308.3
534.4	311.7
534.6	314.0
534.8	313.5
535.0	312.9
535.2	312.3
535.4	313.6
535.6	315.2
535.8	315.9
536.0	315.9
536.2	314.5
536.4	314.3
536.6	315.2
536.8	313.2
537.0	311.7
537.2	311.0
537.4	311.4
537.6	314.3
537.8	315.8
538.0	317.0
538.2	317.3
538.4	317.2
538.6	318.2
538.8	318.5
539.0	315.5
539.2	315.4
539.4	315.0
539.6	314.2
539.8	315.5
540.0	315.2
540.2	314.2
540.4	315.5
540.6	317.0
540.8	317.2
541.0	319.1
541.2	318.2
541.4	317.0
541.6	315.5
541.8	314.3
542.0	313.7
542.2	314.7
542.4	314.7
542.6	313.4
542.8	313.2
543.0	314.0
543.2	314.2
543.4	314.9
543.6	315.8
543.8	314.8
544.0	315.2
544.2	314.5
544.4	314.0
544.6	311.8
544.8	310.4
545.0	308.7
545.2	309.5
545.4	310.8
545.6	312.6
545.8	313.6
546.0	313.4
546.2	311.5
546.4	309.8
546.6	308.9
546.8	306.0
547.0	304.4
547.2	305.2
547.4	305.3
547.6	305.3
547.8	307.8
548.0	309.2
548.2	309.2
548.4	309.0
548.6	307.0
548.8	304.2
549.0	303.4
549.2	302.8
549.4	301.4
549.6	299.5
549.8	298.8
550.0	299.1
550.2	298.8
550.4	299.5
550.6	300.8
550.8	300.2
551.0	299.7
551.2	299.0
551.4	297.1
551.6	294.9
551.8	293.0
552.0	293.9
552.2	296.0
552.4	299.3
552.6	300.8
552.8	298.1
553.0	295.1
553.2	293.9
553.4	293.1
553.6	294.9
553.8	294.4
554.0	292.8
554.2	292.0
554.4	289.6
554.6	289.5
554.8	289.8
555.0	288.3
555.2	287.0
555.4	286.8
555.6	286.4
555.8	286.3
556.0	285.0
556.2	284.7
556.4	284.3
556.6	284.0
556.8	284.1
557.0	282.7
557.2	282.2
557.4	281.0
557.6	279.4
557.8	278.5
558.0	278.5
558.2	278.8
558.4	280.8
558.6	280.4
558.8	279.7
559.0	278.2
559.2	277.5
559.4	276.2
559.6	276.9
559.8	276.4
560.0	273.7
560.2	272.4
560.4	272.0
560.6	270.4
560.8	270.2
561.0	269.7
561.2	269.8
561.4	271.7
561.6	270.5
561.8	268.9
562.0	267.6
562.2	266.7
562.4	266.3
562.6	265.5
562.8	263.8
563.0	264.5
563.2	265.6
563.4	265.4
563.6	263.8
563.8	261.2
564.0	259.7
564.2	258.9
564.4	257.7
564.6	256.1
564.8	255.4
565.0	254.8
565.2	256.4
565.4	256.1
565.6	256.6
565.8	255.6
566.0	253.8
566.2	251.9
566.4	251.7
566.6	251.4
566.8	250.9
567.0	249.4
567.2	249.4
567.4	248.8
567.6	249.5
567.8	249.9
568.0	248.0
568.2	245.0
568.4	244.4
568.6	242.8
568.8	242.8
569.0	244.0
569.2	243.4
569.4	242.1
569.6	240.1
569.8	238.1
570.0	235.7
570.2	235.5
570.4	234.6
570.6	233.9
570.8	233.9
571.0	235.0
571.2	235.1
571.4	235.6
571.6	235.3
571.8	234.6
572.0	233.1
572.2	230.3
572.4	230.2
572.6	230.0
572.8	228.0
573.0	227.6
573.2	227.4
573.4	225.0
573.6	225.9
573.8	226.1
574.0	222.8
574.2	222.3
574.4	223.1
574.6	222.4
574.8	223.2
575.0	222.8
575.2	220.2
575.4	218.9
575.6	216.5
575.8	215.2
576.0	214.9
576.2	214.9
576.4	214.7
576.6	215.2
576.8	213.2
577.0	212.6
577.2	213.4
577.4	211.6
577.6	209.5
577.8	209.1
578.0	207.4
578.2	205.5
578.4	205.7
578.6	204.3
578.8	203.8
579.0	203.0
579.2	203.0
579.4	201.8
579.6	201.9
579.8	203.2
580.0	202.3
580.2	199.5
580.4	198.0
580.6	196.9
580.8	197.8
581.0	198.9
581.2	197.5
581.4	195.9
581.6	193.8
581.8	191.9
582.0	193.4
582.2	194.4
582.4	193.8
582.6	193.2
582.8	191.4
583.0	188.9
583.2	188.1
583.4	186.3
583.6	184.9
583.8	183.9
584.0	183.9
584.2	183.6
584.4	183.4
584.6	182.4
584.8	181.9
585.0	180.8
585.2	180.2
585.4	180.7
585.6	180.9
585.8	178.9
586.0	177.1
586.2	176.0
586.4	175.9
586.6	177.0
586.8	177.2
587.0	176.3
587.2	173.9
587.4	172.9
587.6	173.2
587.8	173.4
588.0	172.8
588.2	172.5
588.4	170.5
588.6	169.0
588.8	168.8
589.0	167.8
589.2	165.0
589.4	164.5
589.6	164.8
589.8	165.2
590.0	165.8
590.2	164.9
590.4	163.1
590.6	162.7
590.8	163.3
591.0	163.2
591.2	161.8
591.4	159.3
591.6	158.8
591.8	159.3
592.0	161.1
592.2	160.5
592.4	158.2
592.6	155.5
592.8	154.2
593.0	153.9
593.2	153.4
593.4	152.1
593.6	149.7
593.8	147.9
594.0	147.6
594.2	148.2
594.4	149.4
594.6	150.2
594.8	150.6
595.0	148.6
595.2	146.7
595.4	144.6
595.6	144.6
595.8	144.4
596.0	146.0
596.2	144.0
596.4	141.9
596.6	140.4
596.8	141.0
597.0	140.1
597.2	139.3
597.4	137.7
597.6	136.8
597.8	136.4
598.0	137.6
598.2	137.1
598.4	135.0
598.6	134.5
598.8	133.7
599.0	133.4
599.2	133.1
599.4	133.2
599.6	130.8
599.8	131.0
600.0	131.5
600.2	131.5
600.4	130.5
600.6	130.4
600.8	129.1
601.0	128.2
601.2	128.9
601.4	127.5
601.6	126.4
601.8	125.9
602.0	125.3
602.2	124.5
602.4	124.3
602.6	124.2
602.8	124.7
603.0	124.1
603.2	123.4
603.4	122.5
603.6	121.0
603.8	120.4
604.0	120.5
604.2	119.7
604.4	119.9
604.6	118.3
604.8	116.1
605.0	114.3
605.2	113.5
605.4	113.4
605.6	114.7
605.8	115.8
606.0	116.0
606.2	114.9
606.4	113.3
606.6	112.8
606.8	111.6
607.0	112.7
607.2	112.3
607.4	111.0
607.6	110.5
607.8	109.9
608.0	109.1
608.2	109.1
608.4	107.8
608.6	107.1
608.8	107.0
609.0	106.7
609.2	106.9
609.4	106.9
609.6	107.5
609.8	106.7
610.0	104.8
610.2	104.0
610.4	102.4
610.6	101.5
610.8	102.2
611.0	102.3
611.2	101.5
611.4	102.1
611.6	101.4
611.8	100.6
612.0	99.05
612.2	98.29
612.4	97.42
612.6	96.96
612.8	96.69
613.0	96.85
613.2	96.46
613.4	96.24
613.6	96.47
613.8	95.70
614.0	95.93
614.2	95.67
614.4	94.91
614.6	94.01
614.8	93.01
615.0	91.60
615.2	91.58
615.4	90.64
615.6	89.44
615.8	89.55
616.0	89.22
616.2	88.48
616.4	88.35
616.6	87.11
616.8	86.24
617.0	86.06
617.2	85.87
617.4	85.35
617.6	85.35
617.8	85.45
618.0	85.85
618.2	85.88
618.4	85.54
618.6	84.44
618.8	82.85
619.0	81.14
619.2	80.33
619.4	80.22
619.6	81.17
619.8	81.25
620.0	81.09
620.2	80.10
620.4	79.42
620.6	79.31
620.8	80.04
621.0	79.52
621.2	78.09
621.4	77.15
621.6	76.20
621.8	75.91
622.0	76.59
622.2	77.02
622.4	75.59
622.6	75.92
622.8	75.16
623.0	74.97
623.2	74.69
623.4	75.09
623.6	73.35
623.8	72.73
624.0	71.51
624.2	71.91
624.4	71.62
624.6	71.85
624.8	70.93
625.0	70.32
625.2	69.66
625.4	69.63
625.6	68.81
625.8	67.82
626.0	67.38
626.2	67.37
626.4	67.73
626.6	67.15
626.8	67.40
627.0	66.32
627.2	66.26
627.4	65.76
627.6	65.33
627.8	65.03
628.0	65.95
628.2	65.49
628.4	65.13
628.6	64.37
628.8	63.03
629.0	62.81
629.2	62.99
629.4	63.40
629.6	63.44
629.8	63.41
630.0	62.20
630.2	60.67
630.4	60.02
630.6	60.02
630.8	59.98
631.0	59.97
631.2	59.48
631.4	58.73
631.6	58.32
631.8	58.63
632.0	59.30
632.2	58.83
632.4	58.11
632.6	57.11
632.8	56.64
633.0	56.40
633.2	56.42
633.4	56.03
633.6	55.36
633.8	54.76
634.0	54.34
634.2	53.18
634.4	53.00
634.6	53.25
634.8	53.02
635.0	53.47
635.2	53.04
635.4	52.53
635.6	52.62
635.8	52.12
636.0	51.21
636.2	51.03
636.4	51.19
636.6	50.85
636.8	50.82
637.0	50.87
637.2	50.59
637.4	50.76
637.6	51.29
637.8	50.98
638.0	50.26
638.2	49.38
638.4	47.91
638.6	46.96
638.8	46.20
639.0	46.43
639.2	46.09
639.4	46.43
639.6	46.62
639.8	47.25
640.0	46.83
640.2	46.89
640.4	45.90
640.6	45.89
640.8	45.29
641.0	44.86
641.2	43.77
641.4	43.30
641.6	42.15
641.8	42.56
642.0	42.23
642.2	42.31
642.4	42.28
642.6	42.86
642.8	42.17
643.0	42.21
643.2	41.62
643.4	41.17
643.6	40.58
643.8	40.25
644.0	40.00
644.2	39.81
644.4	40.06
644.6	39.72
644.8	39.25
645.0	39.28
645.2	39.35
645.4	38.93
645.6	39.29
645.8	38.66
646.0	38.27
646.2	38.42
646.4	38.21
646.6	37.65
646.8	37.42
647.0	36.87
647.2	36.49
647.4	36.29
647.6	36.94
647.8	37.04
648.0	36.52
648.2	35.88
648.4	35.53
648.6	35.29
648.8	35.14
649.0	34.93
649.2	34.46
649.4	34.48
649.6	34.29
649.8	34.32
650.0	33.75
650.2	33.38
650.4	33.10
650.6	33.32
650.8	33.64
651.0	33.79
651.2	33.54
651.4	32.64
651.6	31.25
651.8	30.69
652.0	31.15
652.2	31.77
652.4	32.49
652.6	32.34
652.8	31.01
653.0	30.44
653.2	30.34
653.4	31.25
653.6	31.25
653.8	30.74
654.0	29.40
654.2	29.37
654.4	29.65
654.6	29.99
654.8	30.01
655.0	29.54
655.2	28.76
655.4	28.74
655.6	28.31
655.8	27.84
656.0	27.58
656.2	27.24
656.4	26.87
656.6	27.11
656.8	27.00
657.0	26.65
657.2	26.44
657.4	26.39
657.6	26.33
657.8	26.69
658.0	26.74
658.2	26.77
658.4	27.28
658.6	27.14
658.8	26.67
659.0	25.95
659.2	25.55
659.4	25.97
659.6	25.97
659.8	25.86
660.0	25.15
660.2	24.56
660.4	24.49
660.6	24.65
660.8	24.62
661.0	24.34
661.2	23.54
661.4	23.26
661.6	22.97
661.8	23.23
662.0	23.83
662.2	23.49
662.4	22.99
662.6	22.83
662.8	22.79
663.0	23.14
663.2	23.61
663.4	23.23
663.6	22.51
663.8	21.90
664.0	21.40
664.2	21.11
664.4	20.87
664.6	21.35
664.8	22.09
665.0	22.07
665.2	21.95
665.4	21.76
665.6	21.16
665.8	20.82
666.0	20.79
666.2	20.12
666.4	19.80
666.6	19.89
666.8	20.28
667.0	20.21
667.2	20.13
667.4	20.27
667.6	19.61
667.8	19.13
668.0	19.29
668.2	19.29
668.4	19.43
668.6	19.99
668.8	19.65
669.0	19.37
669.2	19.20
669.4	18.78
669.6	18.14
669.8	17.97
670.0	17.42
670.2	17.12
670.4	17.34
670.6	17.36
670.8	16.98
671.0	17.21
671.2	16.88
671.4	16.75
671.6	16.95
671.8	16.75
672.0	16.33
672.2	16.20
672.4	15.93
672.6	15.81
672.8	15.95
673.0	16.27
673.2	16.28
673.4	16.03
673.6	16.05
673.8	15.94
674.0	15.85
674.2	16.24
674.4	15.83
674.6	15.39
674.8	15.30
675.0	15.01
675.2	14.86
675.4	15.60
675.6	15.47
675.8	15.39
676.0	15.57
676.2	15.34
676.4	15.14
676.6	15.03
676.8	14.01
677.0	13.58
677.2	14.05
677.4	14.39
677.6	14.31
677.8	14.15
678.0	13.44
678.2	12.94
678.4	13.33
678.6	13.77
678.8	13.71
679.0	14.03
679.2	14.04
679.4	13.74
679.6	13.73
679.8	13.86
680.0	13.79
680.2	13.57
680.4	13.66
680.6	13.17
680.8	12.86
681.0	12.72
681.2	12.71
681.4	12.40
681.6	12.85
681.8	12.49
682.0	12.28
682.2	11.93
682.4	11.99
682.6	12.08
682.8	12.20
683.0	11.82
683.2	11.45
683.4	11.09
683.6	11.46
683.8	11.76
684.0	11.97
684.2	11.56
684.4	11.31
684.6	10.97
684.8	10.87
685.0	10.71
685.2	10.81
685.4	10.47
685.6	10.34
685.8	10.50
686.0	10.60
686.2	10.89
686.4	10.84
686.6	10.74
686.8	10.44
687.0	10.09
687.2	10.02
687.4	10.23
687.6	10.16
687.8	10.48
688.0	10.27
688.2	9.839
688.4	9.570
688.6	9.592
688.8	9.466
689.0	9.674
689.2	9.816
689.4	9.543
689.6	9.351
689.8	9.161
690.0	8.973
690.2	9.128
690.4	9.373
690.6	9.219
690.8	9.206
691.0	9.225
691.2	9.432
691.4	9.625
691.6	9.574
691.8	9.311
692.0	9.087
692.2	9.153
692.4	8.955
692.6	8.726
692.8	8.685
693.0	8.492
693.2	8.424
693.4	8.541
693.6	8.380
693.8	8.232
694.0	7.882
694.2	7.809
694.4	7.821
694.6	7.705
694.8	7.768
695.0	7.700
695.2	7.357
695.4	7.785
695.6	7.961
695.8	7.915
696.0	7.890
696.2	7.699
696.4	7.531
696.6	7.667
696.8	7.363
697.0	7.585
697.2	7.473
697.4	7.531
697.6	7.700
697.8	7.877
698.0	7.887
698.2	8.057
698.4	8.016
698.6	7.815
698.8	7.428
699.0	7.217
699.2	7.353
699.4	7.306
699.6	7.475
699.8	7.234
700.0	6.793
700.2	6.492
700.4	6.721
700.6	6.895
700.8	7.048
701.0	7.038
701.2	6.980
701.4	6.667
701.6	6.879
701.8	7.171
702.0	7.112
702.2	7.034
702.4	6.697
702.6	6.498
702.8	6.394
703.0	6.703
703.2	6.947
703.4	6.720
703.6	6.586
703.8	6.627
704.0	6.243
704.2	6.267
704.4	6.325
704.6	5.959
704.8	5.666
705.0	5.676
705.2	5.741
705.4	6.068
705.6	6.349
705.8	6.296
706.0	5.941
706.2	5.790
706.4	5.647
706.6	5.773
706.8	5.624
707.0	5.731
707.2	5.862
707.4	5.833
707.6	5.706
707.8	5.783
708.0	5.473
708.2	5.839
708.4	5.821
708.6	5.879
708.8	5.730
709.0	5.700
709.2	5.473
709.4	5.649
709.6	5.666
709.8	5.705
710.0	5.281
710.2	4.956
710.4	4.634
710.6	4.527
710.8	4.654
711.0	4.904
711.2	4.824
711.4	4.976
711.6	4.967
711.8	5.145
712.0	5.020
712.2	5.058
712.4	4.960
712.6	4.691
712.8	4.539
713.0	4.749
713.2	4.657
713.4	4.835
713.6	4.807
713.8	4.555
714.0	4.610
714.2	4.724
714.4	4.696
714.6	4.738
714.8	4.627
715.0	4.576
715.2	4.400
715.4	4.471
715.6	4.495
715.8	4.552
716.0	4.535
716.2	4.436
716.4	4.335
716.6	4.346
716.8	4.256
717.0	4.276
717.2	4.412
717.4	4.562
717.6	5.028
717.8	5.160
718.0	4.911
718.2	4.619
718.4	4.371
718.6	3.967
718.8	3.829
719.0	3.802
719.2	3.656
719.4	3.899
719.6	3.919
719.8	3.884
720.0	3.997
720.2	3.970
720.4	3.914
720.6	4.128
720.8	4.073
721.0	3.952
721.2	4.201
721.4	4.080
721.6	3.941
721.8	3.783
722.0	3.541
722.2	3.328
722.4	3.552
722.6	3.640
722.8	3.718
723.0	3.614
723.2	3.301
723.4	3.262
723.6	3.394
723.8	3.593
724.0	3.744
724.2	3.669
724.4	3.415
724.6	3.347
724.8	3.260
725.0	3.275
725.2	3.152
725.4	3.045
725.6	2.979
725.8	3.152
726.0	3.213
726.2	3.292
726.4	3.378
726.6	3.333
726.8	3.391
727.0	3.564
727.2	3.432
727.4	3.234
727.6	3.067
727.8	2.868
728.0	2.696
728.2	2.896
728.4	2.922
728.6	3.021
728.8	3.001
729.0	3.150
729.2	2.944
729.4	2.961
729.6	2.837
729.8	2.690
730.0	2.554
730.2	2.561
730.4	2.491
730.6	2.648
730.8	2.695
731.0	2.703
731.2	2.721
731.4	2.696
731.6	2.705
731.8	2.685
732.0	2.529
732.2	2.505
732.4	2.570
732.6	2.594
732.8	2.529
733.0	2.492
733.2	2.455
733.4	2.451
733.6	2.493
733.8	2.350
734.0	2.301
734.2	2.429
734.4	2.236
734.6	2.188
734.8	2.100
735.0	2.208
735.2	2.408
735.4	2.476
735.6	2.264
735.8	2.288
736.0	2.327
736.2	2.490
736.4	2.628
736.6	2.545
736.8	2.507
737.0	2.316
737.2	2.239
737.4	2.239
737.6	2.317
737.8	2.328
738.0	2.441
738.2	2.322
738.4	2.186
738.6	2.226
738.8	2.126
739.0	2.029
739.2	2.001
739.4	2.167
739.6	2.206
739.8	2.419
740.0	2.360
740.2	2.292
740.4	2.091
740.6	2.054
740.8	1.880
741.0	1.901
741.2	1.862
741.4	2.080
741.6	2.025
741.8	2.152
742.0	2.106
742.2	2.154
742.4	2.133
742.6	2.093
742.8	1.813
743.0	1.830
743.2	1.794
743.4	1.886
743.6	1.984
743.8	1.883
744.0	1.746
744.2	1.862
744.4	2.001
744.6	2.052
744.8	2.017
745.0	1.804
745.2	1.487
745.4	1.489
745.6	1.581
745.8	1.593
746.0	1.531
746.2	1.461
746.4	1.293
746.6	1.339
746.8	1.422
747.0	1.509
747.2	1.532
747.4	1.519
747.6	1.599
747.8	1.566
748.0	1.543
748.2	1.600
748.4	1.568
748.6	1.562
748.8	1.586
749.0	1.599
749.2	1.561
749.4	1.504
749.6	1.467
749.8	1.509
750.0	1.475
750.2	1.616
750.4	1.673
750.6	1.548
750.8	1.528
751.0	1.427
751.2	1.433
751.4	1.453
751.6	1.426
751.8	1.354
752.0	1.399
752.2	1.401
752.4	1.397
752.6	1.395
752.8	1.235
753.0	1.142
753.2	1.157
753.4	1.428
753.6	1.417
753.8	1.615
754.0	1.658
754.2	1.610
754.4	1.403
754.6	1.479
754.8	1.355
755.0	1.435
755.2	1.431
755.4	1.467
755.6	1.397
755.8	1.424
756.0	1.336
756.2	1.249
756.4	1.179
756.6	1.215
756.8	1.329
757.0	1.305
757.2	1.248
757.4	1.141
757.6	1.230
757.8	1.194
758.0	1.297
758.2	1.293
758.4	1.317
758.6	1.408
758.8	1.482
759.0	1.348
759.2	1.256
759.4	1.130
759.6	0.883
759.8	0.942
760.0	0.963
760.2	1.057
760.4	1.218
760.6	1.345
760.8	1.279
761.0	1.305
761.2	1.177
761.4	1.177
761.6	1.209
761.8	1.238
762.0	1.273
762.2	1.195
762.4	1.089
762.6	1.035
762.8	1.024
763.0	1.090
763.2	1.073
763.4	1.035
763.6	1.041
763.8	1.002
764.0	0.988
764.2	0.977
764.4	0.943
764.6	0.994
764.8	1.123
765.0	1.252
765.2	1.325
765.4	1.300
765.6	1.130
765.8	0.973
766.0	0.919
766.2	0.910
766.4	0.829
766.6	0.939
766.8	0.909
767.0	0.937
767.2	1.077
767.4	1.210
767.6	1.141
767.8	1.184
768.0	1.011
768.2	0.866
768.4	0.936
768.6	1.009
768.8	1.050
769.0	1.133
769.2	0.877
769.4	0.937
769.6	0.976
769.8	1.036
770.0	1.027
770.2	0.977
770.4	0.791
770.6	0.945
770.8	0.915
771.0	0.893
771.2	0.747
771.4	0.667
771.6	0.798
771.8	0.948
772.0	0.930
772.2	0.835
772.4	0.709
772.6	0.698
772.8	0.736
773.0	0.863
773.2	0.851
773.4	0.925
773.6	0.992
773.8	1.010
774.0	0.850
774.2	0.790
774.4	0.624
774.6	0.672
774.8	0.615
775.0	0.783
775.2	0.864
775.4	0.906
775.6	0.865
775.8	0.882
776.0	0.837
776.2	0.942
776.4	0.909
776.6	0.819
776.8	0.741
777.0	0.836
777.2	0.929
777.4	0.997
777.6	0.948
777.8	0.959
778.0	0.905
778.2	1.082
778.4	1.014
778.6	0.962
778.8	0.931
779.0	0.997
779.2	1.044
779.4	1.330
779.6	1.305
779.8	1.200
780.0	1.131
780.2	0.985
780.4	0.918
780.6	0.995
780.8	1.029
781.0	1.060
781.2	1.124
781.4	1.167
781.6	1.126
781.8	1.079
782.0	1.054
782.2	0.929
782.4	0.816
782.6	0.883
782.8	0.931
783.0	0.970
783.2	1.057
783.4	1.003
783.6	1.004
783.8	1.103
784.0	1.198
784.2	1.238
784.4	1.283
784.6	1.179
784.8	1.143
785.0	1.223
785.2	1.358
785.4	1.699
785.6	1.836
785.8	1.716
786.0	1.473
786.2	1.414
786.4	1.484
786.6	1.729
786.8	1.965
787.0	1.962
787.2	1.970
787.4	1.896
787.6	1.821
787.8	1.875
788.0	2.019
788.2	2.067
788.4	2.216
788.6	2.154
788.8	2.123
789.0	2.112
789.2	2.117
789.4	2.189
789.6	2.279
789.8	2.535
790.0	2.762
790.2	2.690
790.4	2.799
790.6	2.943
790.8	2.919
791.0	3.083
791.2	3.194
791.4	3.105
791.6	3.184
791.8	3.349
792.0	3.176
792.2	3.335
792.4	3.324
792.6	3.201
792.8	3.324
793.0	3.652
793.2	3.941
793.4	4.206
793.6	4.194
793.8	3.866
794.0	3.754
794.2	3.881
794.4	4.295
794.6	4.356
794.8	4.632
795.0	4.650
795.2	4.733
795.4	4.772
795.6	4.790
795.8	4.447
796.0	4.543
796.2	4.924
796.4	5.028
796.6	5.018
796.8	5.179
797.0	4.993
797.2	5.172
797.4	5.569
797.6	5.460
797.8	5.325
798.0	5.193
798.2	4.835
798.4	5.109
798.6	5.464
798.8	5.803
799.0	6.157
799.2	6.279
799.4	6.459
799.6	6.917
799.8	6.972
800.0	6.234

