Sample:	'20211010A(EM)
File name:	G-NI 4.FDS
Run date:	'16:42:09, 06/19/2023
Operator:	Administrator
Comment:	'

Instrument
Model:	F-4700 FL Spectrophotometer
Serial number:	2019-001
ROM Version:	5J24010 00

Instrument parameters
Measurement type:	Wavelength scan
Scan mode:	Emission
Data mode:	Fluorescence
EX WL:	400.0 nm
EM  Start WL:	420.0 nm
EM  End WL:	800.0 nm
Scan speed:	1200 nm/min
Delay:	0.0 s
EX Slit:	10.0 nm
EM Slit:	10.0 nm
PMT Voltage:	500 V
Response:	0.002 s
Corrected spectra:	Off
Shutter control:	On

Processing performed
Savitsky-Golay smoothed
Smoothing order:	3
Number of points:	7
Number of times:	1

Peak integration
Integration method:	Rectangular
Sensitivity:	1
Threshold:	1.000

Peaks
No.	Start(nm)	Apex(nm)	End(nm)	Height(Data)	Valley(nm)	Valley(Data)
1	420.0	536.6	537.6	617.7	537.6	608.9
2	537.6	538.4	540.0	616.7	540.0	612.2
3	540.0	541.0	543.0	616.6	543.0	604.2
4	543.0	543.6	545.0	610.6	545.0	601.3
5	545.0	545.8	702.4	611.2	702.4	12.58
6	702.4	703.0	785.8	13.70	785.8	1.095

Data points
nm	Data
420.0	0.552
420.2	0.798
420.4	0.804
420.6	0.691
420.8	0.657
421.0	0.671
421.2	0.638
421.4	0.787
421.6	0.796
421.8	0.787
422.0	0.798
422.2	0.696
422.4	0.695
422.6	0.744
422.8	0.759
423.0	0.767
423.2	0.660
423.4	0.552
423.6	0.598
423.8	0.607
424.0	0.642
424.2	0.656
424.4	0.633
424.6	0.663
424.8	0.575
425.0	0.586
425.2	0.578
425.4	0.628
425.6	0.634
425.8	0.708
426.0	0.697
426.2	0.736
426.4	0.689
426.6	0.664
426.8	0.631
427.0	0.640
427.2	0.626
427.4	0.586
427.6	0.493
427.8	0.503
428.0	0.654
428.2	0.692
428.4	0.712
428.6	0.667
428.8	0.585
429.0	0.652
429.2	0.687
429.4	0.753
429.6	0.716
429.8	0.634
430.0	0.655
430.2	0.765
430.4	0.764
430.6	0.878
430.8	0.816
431.0	0.836
431.2	0.791
431.4	0.736
431.6	0.718
431.8	0.608
432.0	0.466
432.2	0.577
432.4	0.661
432.6	0.800
432.8	0.957
433.0	0.872
433.2	0.745
433.4	0.686
433.6	0.622
433.8	0.623
434.0	0.676
434.2	0.588
434.4	0.623
434.6	0.613
434.8	0.719
435.0	0.801
435.2	0.828
435.4	0.778
435.6	0.751
435.8	0.741
436.0	0.954
436.2	0.986
436.4	0.991
436.6	0.949
436.8	0.890
437.0	0.826
437.2	0.832
437.4	0.746
437.6	0.789
437.8	0.740
438.0	0.820
438.2	0.819
438.4	0.919
438.6	1.002
438.8	1.021
439.0	0.933
439.2	0.833
439.4	0.794
439.6	0.768
439.8	0.760
440.0	0.749
440.2	0.707
440.4	0.755
440.6	0.824
440.8	0.832
441.0	0.728
441.2	0.765
441.4	0.653
441.6	0.698
441.8	0.617
442.0	0.665
442.2	0.607
442.4	0.672
442.6	0.710
442.8	0.815
443.0	0.760
443.2	0.747
443.4	0.725
443.6	0.706
443.8	0.702
444.0	0.779
444.2	0.783
444.4	0.815
444.6	0.766
444.8	0.744
445.0	0.724
445.2	0.793
445.4	0.721
445.6	0.758
445.8	0.722
446.0	0.648
446.2	0.679
446.4	0.660
446.6	0.626
446.8	0.799
447.0	0.877
447.2	0.814
447.4	0.785
447.6	0.652
447.8	0.592
448.0	0.612
448.2	0.612
448.4	0.646
448.6	0.769
448.8	0.796
449.0	0.729
449.2	0.686
449.4	0.718
449.6	0.767
449.8	0.861
450.0	0.802
450.2	0.669
450.4	0.606
450.6	0.606
450.8	0.657
451.0	0.727
451.2	0.831
451.4	0.841
451.6	0.883
451.8	0.945
452.0	0.950
452.2	0.893
452.4	0.869
452.6	0.735
452.8	0.653
453.0	0.646
453.2	0.691
453.4	0.750
453.6	0.884
453.8	0.969
454.0	0.906
454.2	0.835
454.4	0.802
454.6	0.869
454.8	0.999
455.0	1.003
455.2	0.958
455.4	0.810
455.6	0.721
455.8	0.800
456.0	0.677
456.2	0.666
456.4	0.769
456.6	0.737
456.8	0.798
457.0	0.832
457.2	0.740
457.4	0.802
457.6	0.855
457.8	0.937
458.0	0.948
458.2	0.835
458.4	0.811
458.6	0.733
458.8	0.688
459.0	0.815
459.2	0.848
459.4	0.814
459.6	0.832
459.8	0.765
460.0	0.789
460.2	0.819
460.4	0.855
460.6	0.887
460.8	0.914
461.0	0.879
461.2	0.909
461.4	0.793
461.6	0.783
461.8	0.738
462.0	0.886
462.2	1.078
462.4	1.212
462.6	1.130
462.8	1.139
463.0	1.103
463.2	1.110
463.4	1.196
463.6	1.062
463.8	0.885
464.0	0.790
464.2	0.924
464.4	1.021
464.6	1.088
464.8	0.999
465.0	1.041
465.2	1.040
465.4	1.208
465.6	1.362
465.8	1.472
466.0	1.472
466.2	1.416
466.4	1.258
466.6	1.212
466.8	1.233
467.0	1.405
467.2	1.365
467.4	1.299
467.6	1.207
467.8	1.243
468.0	1.371
468.2	1.512
468.4	1.548
468.6	1.564
468.8	1.587
469.0	1.502
469.2	1.641
469.4	1.661
469.6	1.648
469.8	1.489
470.0	1.465
470.2	1.554
470.4	1.958
470.6	2.205
470.8	2.316
471.0	2.199
471.2	1.940
471.4	1.925
471.6	2.031
471.8	2.175
472.0	2.438
472.2	2.554
472.4	2.508
472.6	2.530
472.8	2.536
473.0	2.573
473.2	2.692
473.4	2.795
473.6	3.104
473.8	3.233
474.0	3.282
474.2	3.336
474.4	3.353
474.6	3.496
474.8	3.689
475.0	3.657
475.2	3.594
475.4	3.640
475.6	3.771
475.8	4.219
476.0	4.378
476.2	4.383
476.4	4.289
476.6	4.370
476.8	4.592
477.0	4.934
477.2	5.242
477.4	5.463
477.6	5.581
477.8	5.908
478.0	6.151
478.2	6.095
478.4	6.245
478.6	6.494
478.8	6.656
479.0	6.810
479.2	6.970
479.4	6.865
479.6	6.949
479.8	7.224
480.0	7.808
480.2	8.271
480.4	8.930
480.6	9.259
480.8	9.592
481.0	9.671
481.2	9.898
481.4	10.37
481.6	10.77
481.8	11.55
482.0	12.09
482.2	12.14
482.4	12.07
482.6	12.23
482.8	12.58
483.0	13.54
483.2	14.40
483.4	14.67
483.6	14.97
483.8	15.15
484.0	15.46
484.2	15.99
484.4	16.77
484.6	17.39
484.8	17.88
485.0	18.66
485.2	18.93
485.4	19.59
485.6	20.48
485.8	21.30
486.0	21.28
486.2	22.30
486.4	23.12
486.6	24.05
486.8	25.09
487.0	25.73
487.2	26.36
487.4	27.14
487.6	28.29
487.8	28.94
488.0	29.52
488.2	29.99
488.4	31.23
488.6	32.21
488.8	33.50
489.0	34.39
489.2	34.87
489.4	35.35
489.6	36.27
489.8	37.62
490.0	39.22
490.2	40.83
490.4	42.16
490.6	43.08
490.8	44.43
491.0	45.98
491.2	48.05
491.4	49.65
491.6	50.81
491.8	51.50
492.0	52.16
492.2	53.74
492.4	55.26
492.6	56.25
492.8	57.06
493.0	58.86
493.2	61.17
493.4	63.57
493.6	65.08
493.8	65.89
494.0	67.41
494.2	70.03
494.4	72.73
494.6	74.19
494.8	75.17
495.0	77.26
495.2	80.50
495.4	83.16
495.6	85.37
495.8	87.12
496.0	89.34
496.2	91.92
496.4	94.04
496.6	96.04
496.8	96.48
497.0	97.03
497.2	100.4
497.4	103.5
497.6	106.1
497.8	109.1
498.0	110.4
498.2	111.3
498.4	114.3
498.6	117.5
498.8	121.5
499.0	124.7
499.2	127.9
499.4	129.8
499.6	132.4
499.8	135.1
500.0	137.3
500.2	139.1
500.4	141.7
500.6	144.9
500.8	148.7
501.0	152.1
501.2	154.7
501.4	157.8
501.6	160.4
501.8	164.1
502.0	167.2
502.2	170.4
502.4	174.2
502.6	177.3
502.8	179.2
503.0	182.1
503.2	185.6
503.4	189.0
503.6	193.0
503.8	197.6
504.0	201.0
504.2	204.3
504.4	207.1
504.6	210.8
504.8	213.0
505.0	216.7
505.2	218.9
505.4	222.2
505.6	225.5
505.8	229.9
506.0	234.1
506.2	237.9
506.4	240.2
506.6	244.1
506.8	247.7
507.0	251.4
507.2	258.1
507.4	261.7
507.6	265.9
507.8	268.9
508.0	271.8
508.2	273.9
508.4	275.7
508.6	277.4
508.8	282.6
509.0	287.2
509.2	292.3
509.4	296.6
509.6	299.9
509.8	302.7
510.0	306.2
510.2	311.7
510.4	315.7
510.6	319.6
510.8	324.5
511.0	327.4
511.2	331.2
511.4	337.1
511.6	341.1
511.8	344.7
512.0	348.2
512.2	350.1
512.4	353.5
512.6	357.2
512.8	359.8
513.0	364.7
513.2	368.4
513.4	371.3
513.6	373.3
513.8	376.1
514.0	378.4
514.2	381.5
514.4	384.8
514.6	389.8
514.8	393.8
515.0	398.7
515.2	403.8
515.4	407.1
515.6	410.9
515.8	413.8
516.0	417.4
516.2	420.3
516.4	425.4
516.6	429.9
516.8	433.6
517.0	436.9
517.2	441.1
517.4	442.1
517.6	445.9
517.8	449.1
518.0	450.4
518.2	453.7
518.4	459.0
518.6	460.5
518.8	465.3
519.0	469.4
519.2	470.2
519.4	472.8
519.6	477.6
519.8	478.1
520.0	481.6
520.2	483.4
520.4	484.5
520.6	486.9
520.8	489.8
521.0	491.3
521.2	495.1
521.4	500.5
521.6	505.7
521.8	509.4
522.0	511.1
522.2	511.3
522.4	509.5
522.6	511.1
522.8	514.5
523.0	519.7
523.2	524.7
523.4	526.7
523.6	526.2
523.8	528.5
524.0	533.3
524.2	538.0
524.4	541.3
524.6	539.4
524.8	538.3
525.0	537.8
525.2	540.6
525.4	545.5
525.6	549.2
525.8	551.5
526.0	552.1
526.2	550.9
526.4	552.0
526.6	556.5
526.8	558.1
527.0	561.4
527.2	563.2
527.4	565.7
527.6	568.7
527.8	571.0
528.0	570.5
528.2	572.6
528.4	575.2
528.6	578.7
528.8	581.7
529.0	581.4
529.2	580.0
529.4	580.0
529.6	582.6
529.8	584.4
530.0	587.3
530.2	588.5
530.4	588.6
530.6	588.4
530.8	590.6
531.0	589.0
531.2	590.0
531.4	592.3
531.6	593.5
531.8	595.3
532.0	597.3
532.2	598.3
532.4	600.2
532.6	603.1
532.8	605.6
533.0	605.7
533.2	605.6
533.4	602.1
533.6	601.0
533.8	600.9
534.0	602.9
534.2	606.0
534.4	609.1
534.6	607.6
534.8	608.7
535.0	607.7
535.2	610.6
535.4	613.0
535.6	612.9
535.8	614.3
536.0	613.8
536.2	612.8
536.4	616.8
536.6	617.7
536.8	615.4
537.0	615.2
537.2	612.9
537.4	610.3
537.6	608.9
537.8	610.2
538.0	611.9
538.2	613.9
538.4	616.7
538.6	615.7
538.8	614.3
539.0	614.0
539.2	615.1
539.4	614.5
539.6	614.4
539.8	613.4
540.0	612.2
540.2	612.3
540.4	615.2
540.6	616.0
540.8	616.2
541.0	616.6
541.2	612.8
541.4	612.0
541.6	615.0
541.8	613.6
542.0	615.7
542.2	615.1
542.4	613.5
542.6	610.2
542.8	608.9
543.0	604.2
543.2	606.0
543.4	607.4
543.6	610.6
543.8	610.1
544.0	609.2
544.2	607.5
544.4	607.3
544.6	606.3
544.8	602.3
545.0	601.3
545.2	601.8
545.4	603.9
545.6	609.8
545.8	611.2
546.0	608.5
546.2	604.9
546.4	599.5
546.6	597.6
546.8	599.8
547.0	599.2
547.2	598.4
547.4	596.9
547.6	595.7
547.8	596.2
548.0	596.6
548.2	595.4
548.4	593.7
548.6	596.2
548.8	598.2
549.0	595.5
549.2	592.8
549.4	587.1
549.6	583.3
549.8	583.2
550.0	584.7
550.2	586.1
550.4	588.2
550.6	589.5
550.8	588.0
551.0	583.1
551.2	578.0
551.4	575.1
551.6	575.3
551.8	578.1
552.0	577.3
552.2	577.7
552.4	576.9
552.6	577.0
552.8	577.9
553.0	576.7
553.2	574.6
553.4	574.3
553.6	572.8
553.8	570.4
554.0	568.3
554.2	565.2
554.4	564.6
554.6	564.4
554.8	564.4
555.0	564.8
555.2	564.0
555.4	561.5
555.6	562.3
555.8	559.4
556.0	557.1
556.2	556.0
556.4	552.8
556.6	551.6
556.8	554.2
557.0	552.0
557.2	551.7
557.4	550.3
557.6	548.1
557.8	548.5
558.0	547.3
558.2	543.5
558.4	543.2
558.6	543.1
558.8	541.2
559.0	540.1
559.2	537.8
559.4	534.0
559.6	534.6
559.8	534.4
560.0	534.5
560.2	533.9
560.4	532.5
560.6	528.1
560.8	524.3
561.0	520.6
561.2	520.9
561.4	522.1
561.6	522.3
561.8	519.7
562.0	517.7
562.2	516.7
562.4	516.4
562.6	517.5
562.8	517.6
563.0	513.6
563.2	509.4
563.4	508.2
563.6	506.1
563.8	507.4
564.0	507.2
564.2	504.9
564.4	501.2
564.6	500.2
564.8	499.9
565.0	499.5
565.2	497.3
565.4	493.6
565.6	489.9
565.8	486.3
566.0	487.3
566.2	485.8
566.4	487.1
566.6	486.3
566.8	487.0
567.0	487.2
567.2	486.9
567.4	484.5
567.6	483.2
567.8	479.4
568.0	478.1
568.2	476.6
568.4	474.7
568.6	473.2
568.8	471.6
569.0	468.4
569.2	465.9
569.4	463.0
569.6	461.3
569.8	461.9
570.0	462.7
570.2	463.6
570.4	461.3
570.6	457.5
570.8	456.2
571.0	455.7
571.2	455.7
571.4	455.7
571.6	452.7
571.8	449.2
572.0	448.6
572.2	447.2
572.4	448.5
572.6	446.6
572.8	444.3
573.0	442.9
573.2	441.4
573.4	438.9
573.6	439.1
573.8	434.4
574.0	433.1
574.2	433.7
574.4	430.4
574.6	428.9
574.8	427.9
575.0	426.0
575.2	424.3
575.4	422.2
575.6	416.6
575.8	415.2
576.0	415.2
576.2	416.9
576.4	415.2
576.6	414.8
576.8	412.1
577.0	411.2
577.2	411.0
577.4	408.5
577.6	407.1
577.8	405.6
578.0	402.9
578.2	401.8
578.4	399.9
578.6	397.1
578.8	396.6
579.0	396.1
579.2	394.5
579.4	395.1
579.6	393.2
579.8	389.9
580.0	386.2
580.2	383.7
580.4	381.4
580.6	384.2
580.8	386.1
581.0	386.5
581.2	383.5
581.4	379.4
581.6	377.5
581.8	375.4
582.0	374.7
582.2	373.5
582.4	373.4
582.6	371.0
582.8	371.2
583.0	367.6
583.2	364.1
583.4	362.4
583.6	361.8
583.8	360.7
584.0	360.7
584.2	360.5
584.4	358.9
584.6	356.7
584.8	354.4
585.0	355.2
585.2	355.1
585.4	356.1
585.6	354.0
585.8	350.3
586.0	347.4
586.2	344.9
586.4	342.2
586.6	340.4
586.8	340.9
587.0	339.8
587.2	339.4
587.4	338.4
587.6	336.2
587.8	333.5
588.0	331.8
588.2	327.3
588.4	326.2
588.6	324.9
588.8	325.2
589.0	325.2
589.2	324.1
589.4	321.5
589.6	320.3
589.8	317.6
590.0	318.0
590.2	319.1
590.4	319.6
590.6	318.7
590.8	317.1
591.0	313.2
591.2	311.4
591.4	310.6
591.6	309.9
591.8	309.5
592.0	308.1
592.2	305.0
592.4	302.6
592.6	300.7
592.8	298.9
593.0	300.0
593.2	298.6
593.4	297.9
593.6	298.2
593.8	297.6
594.0	296.4
594.2	294.8
594.4	290.9
594.6	286.4
594.8	285.1
595.0	285.5
595.2	284.8
595.4	282.9
595.6	282.9
595.8	281.4
596.0	280.5
596.2	281.5
596.4	280.9
596.6	279.2
596.8	278.4
597.0	275.9
597.2	272.9
597.4	270.6
597.6	269.5
597.8	269.4
598.0	269.6
598.2	268.6
598.4	268.1
598.6	265.8
598.8	264.3
599.0	263.7
599.2	262.8
599.4	262.3
599.6	261.7
599.8	258.9
600.0	257.6
600.2	256.0
600.4	254.3
600.6	253.6
600.8	253.4
601.0	251.5
601.2	250.0
601.4	249.8
601.6	250.1
601.8	248.7
602.0	246.5
602.2	245.1
602.4	243.8
602.6	245.0
602.8	246.6
603.0	245.1
603.2	241.5
603.4	239.8
603.6	237.8
603.8	235.9
604.0	234.0
604.2	233.8
604.4	232.8
604.6	232.5
604.8	232.5
605.0	232.2
605.2	230.7
605.4	231.1
605.6	230.2
605.8	226.9
606.0	223.7
606.2	221.8
606.4	219.4
606.6	217.7
606.8	217.0
607.0	216.3
607.2	215.4
607.4	216.4
607.6	215.6
607.8	212.8
608.0	212.7
608.2	212.6
608.4	212.2
608.6	211.8
608.8	209.2
609.0	207.2
609.2	208.0
609.4	207.5
609.6	206.0
609.8	203.0
610.0	203.4
610.2	204.0
610.4	206.0
610.6	205.9
610.8	203.7
611.0	200.0
611.2	199.1
611.4	198.0
611.6	198.0
611.8	196.9
612.0	195.8
612.2	193.7
612.4	192.2
612.6	191.9
612.8	192.3
613.0	191.0
613.2	188.7
613.4	187.6
613.6	186.2
613.8	184.7
614.0	184.0
614.2	181.9
614.4	181.4
614.6	181.8
614.8	180.8
615.0	179.9
615.2	179.9
615.4	179.5
615.6	179.2
615.8	179.1
616.0	177.3
616.2	175.5
616.4	174.7
616.6	173.5
616.8	172.9
617.0	172.6
617.2	172.3
617.4	172.0
617.6	169.6
617.8	167.1
618.0	166.1
618.2	163.5
618.4	164.1
618.6	163.7
618.8	162.7
619.0	162.1
619.2	161.6
619.4	160.4
619.6	160.4
619.8	157.7
620.0	156.2
620.2	156.1
620.4	156.4
620.6	156.9
620.8	156.1
621.0	154.1
621.2	152.5
621.4	151.3
621.6	150.9
621.8	149.7
622.0	150.5
622.2	150.9
622.4	150.2
622.6	148.9
622.8	148.1
623.0	146.2
623.2	146.9
623.4	146.4
623.6	145.6
623.8	144.5
624.0	142.9
624.2	140.6
624.4	138.5
624.6	138.3
624.8	138.3
625.0	138.6
625.2	137.3
625.4	135.7
625.6	133.9
625.8	133.3
626.0	132.5
626.2	133.6
626.4	133.0
626.6	132.7
626.8	133.2
627.0	133.0
627.2	132.0
627.4	130.9
627.6	128.3
627.8	127.3
628.0	127.5
628.2	128.6
628.4	127.8
628.6	127.1
628.8	126.2
629.0	125.1
629.2	124.0
629.4	123.7
629.6	122.8
629.8	122.9
630.0	122.7
630.2	121.4
630.4	121.0
630.6	120.4
630.8	119.9
631.0	119.2
631.2	118.6
631.4	117.9
631.6	118.0
631.8	118.0
632.0	117.3
632.2	116.6
632.4	114.5
632.6	112.2
632.8	110.5
633.0	109.8
633.2	109.6
633.4	109.9
633.6	108.7
633.8	108.3
634.0	107.3
634.2	107.4
634.4	106.9
634.6	107.2
634.8	105.5
635.0	104.7
635.2	102.9
635.4	102.4
635.6	102.3
635.8	104.2
636.0	104.3
636.2	104.4
636.4	103.2
636.6	102.3
636.8	101.0
637.0	100.6
637.2	99.53
637.4	98.51
637.6	97.80
637.8	97.62
638.0	97.30
638.2	96.90
638.4	95.77
638.6	95.03
638.8	93.67
639.0	92.56
639.2	92.97
639.4	92.07
639.6	91.41
639.8	90.18
640.0	89.87
640.2	89.39
640.4	90.55
640.6	90.44
640.8	89.66
641.0	87.81
641.2	87.39
641.4	87.14
641.6	87.68
641.8	87.48
642.0	86.53
642.2	84.80
642.4	83.63
642.6	83.17
642.8	83.22
643.0	83.60
643.2	83.78
643.4	82.79
643.6	81.43
643.8	79.86
644.0	79.89
644.2	80.57
644.4	80.50
644.6	80.01
644.8	78.37
645.0	77.49
645.2	77.56
645.4	77.36
645.6	77.26
645.8	76.46
646.0	75.15
646.2	74.80
646.4	74.41
646.6	73.76
646.8	73.48
647.0	72.82
647.2	71.92
647.4	72.61
647.6	72.57
647.8	71.41
648.0	70.36
648.2	70.19
648.4	68.23
648.6	68.58
648.8	69.21
649.0	69.07
649.2	69.09
649.4	68.96
649.6	67.53
649.8	68.08
650.0	67.82
650.2	67.38
650.4	66.74
650.6	66.31
650.8	66.01
651.0	65.80
651.2	65.10
651.4	65.26
651.6	65.66
651.8	65.22
652.0	64.52
652.2	63.16
652.4	62.11
652.6	62.40
652.8	62.17
653.0	61.48
653.2	61.41
653.4	61.24
653.6	60.73
653.8	61.10
654.0	60.36
654.2	59.62
654.4	58.92
654.6	58.31
654.8	57.83
655.0	57.58
655.2	57.08
655.4	56.32
655.6	55.55
655.8	55.75
656.0	55.12
656.2	55.24
656.4	55.24
656.6	54.71
656.8	54.09
657.0	54.84
657.2	54.59
657.4	54.21
657.6	53.46
657.8	52.32
658.0	51.86
658.2	51.61
658.4	52.12
658.6	51.93
658.8	51.34
659.0	51.03
659.2	50.87
659.4	49.96
659.6	50.18
659.8	49.42
660.0	49.75
660.2	49.53
660.4	48.71
660.6	48.20
660.8	47.80
661.0	47.21
661.2	48.03
661.4	48.02
661.6	48.52
661.8	48.36
662.0	48.00
662.2	46.54
662.4	45.44
662.6	44.77
662.8	44.95
663.0	45.26
663.2	45.72
663.4	45.03
663.6	44.39
663.8	43.77
664.0	42.97
664.2	43.19
664.4	42.67
664.6	42.76
664.8	42.60
665.0	41.88
665.2	41.55
665.4	41.00
665.6	40.95
665.8	40.98
666.0	40.44
666.2	39.82
666.4	39.93
666.6	39.79
666.8	40.78
667.0	41.18
667.2	40.38
667.4	39.47
667.6	38.34
667.8	37.22
668.0	37.03
668.2	37.64
668.4	37.71
668.6	37.92
668.8	37.59
669.0	36.63
669.2	35.73
669.4	35.75
669.6	35.52
669.8	35.80
670.0	35.67
670.2	35.42
670.4	35.04
670.6	35.09
670.8	34.71
671.0	34.55
671.2	34.28
671.4	34.45
671.6	34.49
671.8	34.56
672.0	34.49
672.2	33.96
672.4	33.65
672.6	33.41
672.8	32.70
673.0	32.44
673.2	32.14
673.4	31.52
673.6	31.98
673.8	32.36
674.0	31.95
674.2	31.22
674.4	30.83
674.6	30.37
674.8	30.79
675.0	30.92
675.2	30.20
675.4	29.88
675.6	29.91
675.8	29.75
676.0	30.22
676.2	30.34
676.4	29.71
676.6	29.32
676.8	28.80
677.0	28.25
677.2	28.50
677.4	28.69
677.6	28.33
677.8	28.22
678.0	27.93
678.2	27.49
678.4	27.12
678.6	26.62
678.8	26.52
679.0	26.97
679.2	26.66
679.4	26.46
679.6	25.86
679.8	25.54
680.0	25.76
680.2	25.74
680.4	25.64
680.6	26.06
680.8	25.90
681.0	25.88
681.2	25.23
681.4	24.71
681.6	24.41
681.8	24.49
682.0	24.06
682.2	24.04
682.4	23.81
682.6	24.05
682.8	24.13
683.0	23.71
683.2	23.67
683.4	23.68
683.6	23.36
683.8	23.28
684.0	23.04
684.2	23.06
684.4	23.53
684.6	23.46
684.8	22.64
685.0	22.46
685.2	21.53
685.4	21.93
685.6	21.72
685.8	21.82
686.0	22.01
686.2	22.16
686.4	21.46
686.6	21.56
686.8	20.98
687.0	20.52
687.2	20.68
687.4	20.34
687.6	20.21
687.8	20.41
688.0	20.55
688.2	20.34
688.4	20.65
688.6	20.42
688.8	19.79
689.0	19.65
689.2	19.51
689.4	19.34
689.6	19.37
689.8	19.31
690.0	19.13
690.2	18.95
690.4	18.83
690.6	18.57
690.8	18.30
691.0	18.30
691.2	18.24
691.4	17.57
691.6	17.62
691.8	17.86
692.0	18.06
692.2	18.40
692.4	18.08
692.6	17.25
692.8	16.97
693.0	16.91
693.2	16.93
693.4	17.39
693.6	17.48
693.8	16.99
694.0	16.58
694.2	16.26
694.4	16.15
694.6	15.92
694.8	16.44
695.0	16.30
695.2	16.23
695.4	15.97
695.6	15.82
695.8	15.46
696.0	16.46
696.2	16.20
696.4	16.08
696.6	15.52
696.8	14.82
697.0	14.77
697.2	15.12
697.4	14.53
697.6	14.38
697.8	14.29
698.0	14.23
698.2	14.37
698.4	14.74
698.6	14.18
698.8	14.05
699.0	13.90
699.2	14.22
699.4	14.34
699.6	14.55
699.8	14.44
700.0	14.36
700.2	14.12
700.4	14.32
700.6	14.29
700.8	14.15
701.0	14.07
701.2	13.73
701.4	13.48
701.6	13.41
701.8	13.33
702.0	13.20
702.2	12.62
702.4	12.58
702.6	12.91
702.8	13.21
703.0	13.70
703.2	13.66
703.4	12.85
703.6	12.30
703.8	12.17
704.0	11.91
704.2	12.05
704.4	11.88
704.6	11.90
704.8	12.03
705.0	12.45
705.2	12.39
705.4	12.38
705.6	12.08
705.8	12.36
706.0	12.17
706.2	12.40
706.4	12.33
706.6	11.88
706.8	11.57
707.0	11.46
707.2	10.89
707.4	11.06
707.6	11.25
707.8	11.28
708.0	11.44
708.2	11.31
708.4	10.97
708.6	10.71
708.8	10.52
709.0	10.46
709.2	10.36
709.4	10.25
709.6	10.36
709.8	10.47
710.0	10.28
710.2	10.16
710.4	10.07
710.6	10.06
710.8	10.01
711.0	10.14
711.2	10.19
711.4	10.29
711.6	10.64
711.8	10.38
712.0	9.827
712.2	9.646
712.4	9.307
712.6	9.358
712.8	9.815
713.0	9.931
713.2	9.908
713.4	9.867
713.6	9.554
713.8	9.440
714.0	9.436
714.2	9.689
714.4	9.592
714.6	9.288
714.8	9.320
715.0	9.036
715.2	8.999
715.4	9.063
715.6	8.771
715.8	8.393
716.0	8.265
716.2	8.472
716.4	8.617
716.6	8.497
716.8	8.454
717.0	8.279
717.2	8.171
717.4	8.525
717.6	8.938
717.8	8.561
718.0	8.714
718.2	8.489
718.4	8.174
718.6	8.087
718.8	8.028
719.0	7.641
719.2	7.634
719.4	7.395
719.6	7.276
719.8	7.381
720.0	7.617
720.2	7.926
720.4	8.001
720.6	7.785
720.8	7.933
721.0	7.753
721.2	7.474
721.4	7.532
721.6	7.328
721.8	7.332
722.0	7.646
722.2	7.636
722.4	7.259
722.6	7.360
722.8	7.111
723.0	7.214
723.2	7.056
723.4	7.041
723.6	6.914
723.8	7.045
724.0	7.120
724.2	6.913
724.4	6.578
724.6	6.468
724.8	6.332
725.0	6.386
725.2	6.717
725.4	6.557
725.6	6.581
725.8	6.296
726.0	6.048
726.2	5.894
726.4	6.055
726.6	6.062
726.8	6.264
727.0	6.098
727.2	6.120
727.4	6.110
727.6	6.155
727.8	6.116
728.0	5.898
728.2	5.883
728.4	6.042
728.6	5.927
728.8	5.861
729.0	5.788
729.2	5.490
729.4	5.379
729.6	5.663
729.8	5.618
730.0	5.577
730.2	5.567
730.4	5.457
730.6	5.446
730.8	5.585
731.0	5.443
731.2	5.248
731.4	5.131
731.6	5.031
731.8	5.103
732.0	5.074
732.2	4.988
732.4	5.006
732.6	5.106
732.8	5.001
733.0	5.004
733.2	5.304
733.4	5.323
733.6	5.430
733.8	5.355
734.0	5.049
734.2	4.897
734.4	4.967
734.6	4.944
734.8	4.843
735.0	4.756
735.2	4.793
735.4	4.782
735.6	4.752
735.8	4.869
736.0	4.785
736.2	4.641
736.4	4.614
736.6	4.686
736.8	4.574
737.0	4.310
737.2	4.424
737.4	4.194
737.6	4.184
737.8	4.618
738.0	4.922
738.2	4.902
738.4	5.073
738.6	4.780
738.8	4.395
739.0	4.215
739.2	4.200
739.4	4.062
739.6	4.301
739.8	4.327
740.0	4.143
740.2	3.905
740.4	3.768
740.6	3.643
740.8	3.802
741.0	3.788
741.2	3.598
741.4	3.621
741.6	3.594
741.8	3.614
742.0	3.712
742.2	3.625
742.4	3.426
742.6	3.361
742.8	3.323
743.0	3.437
743.2	3.461
743.4	3.476
743.6	3.526
743.8	3.288
744.0	3.270
744.2	3.531
744.4	3.481
744.6	3.577
744.8	3.849
745.0	3.794
745.2	3.651
745.4	3.666
745.6	3.487
745.8	3.184
746.0	3.285
746.2	3.275
746.4	3.334
746.6	3.471
746.8	3.532
747.0	3.404
747.2	3.460
747.4	3.365
747.6	3.393
747.8	3.404
748.0	3.273
748.2	3.287
748.4	3.290
748.6	3.136
748.8	3.019
749.0	3.103
749.2	3.090
749.4	3.178
749.6	3.182
749.8	3.082
750.0	2.944
750.2	3.124
750.4	3.126
750.6	2.996
750.8	2.798
751.0	2.843
751.2	3.019
751.4	3.177
751.6	2.888
751.8	2.684
752.0	2.377
752.2	2.383
752.4	2.568
752.6	2.598
752.8	2.439
753.0	2.485
753.2	2.475
753.4	2.632
753.6	2.708
753.8	2.829
754.0	2.919
754.2	2.792
754.4	2.777
754.6	2.966
754.8	2.874
755.0	2.728
755.2	2.610
755.4	2.473
755.6	2.462
755.8	2.725
756.0	2.712
756.2	2.553
756.4	2.395
756.6	2.318
756.8	2.221
757.0	2.296
757.2	2.418
757.4	2.511
757.6	2.393
757.8	2.492
758.0	2.431
758.2	2.328
758.4	2.218
758.6	2.263
758.8	2.210
759.0	2.410
759.2	2.346
759.4	2.314
759.6	2.188
759.8	2.247
760.0	2.352
760.2	2.323
760.4	2.090
760.6	2.259
760.8	2.368
761.0	2.298
761.2	2.461
761.4	2.297
761.6	2.082
761.8	2.222
762.0	2.194
762.2	2.055
762.4	2.105
762.6	2.057
762.8	2.122
763.0	2.118
763.2	2.048
763.4	2.117
763.6	2.174
763.8	2.330
764.0	2.426
764.2	2.233
764.4	2.138
764.6	2.100
764.8	2.114
765.0	2.203
765.2	2.063
765.4	1.867
765.6	1.810
765.8	1.735
766.0	1.836
766.2	1.907
766.4	1.944
766.6	1.917
766.8	1.937
767.0	1.860
767.2	1.886
767.4	1.918
767.6	1.856
767.8	1.765
768.0	1.925
768.2	2.007
768.4	2.018
768.6	1.932
768.8	1.687
769.0	1.624
769.2	1.821
769.4	1.983
769.6	1.953
769.8	1.850
770.0	1.690
770.2	1.582
770.4	1.557
770.6	1.670
770.8	1.717
771.0	1.821
771.2	1.690
771.4	1.731
771.6	1.690
771.8	1.780
772.0	1.699
772.2	1.789
772.4	1.951
772.6	2.114
772.8	2.045
773.0	1.969
773.2	1.643
773.4	1.454
773.6	1.654
773.8	1.691
774.0	1.756
774.2	1.791
774.4	1.803
774.6	1.642
774.8	1.737
775.0	1.750
775.2	1.715
775.4	1.563
775.6	1.621
775.8	1.547
776.0	1.582
776.2	1.529
776.4	1.457
776.6	1.408
776.8	1.436
777.0	1.411
777.2	1.410
777.4	1.464
777.6	1.524
777.8	1.455
778.0	1.405
778.2	1.290
778.4	1.250
778.6	1.384
778.8	1.522
779.0	1.366
779.2	1.390
779.4	1.386
779.6	1.398
779.8	1.416
780.0	1.528
780.2	1.341
780.4	1.345
780.6	1.513
780.8	1.525
781.0	1.471
781.2	1.556
781.4	1.488
781.6	1.479
781.8	1.566
782.0	1.442
782.2	1.339
782.4	1.388
782.6	1.342
782.8	1.299
783.0	1.374
783.2	1.602
783.4	1.735
783.6	1.768
783.8	1.662
784.0	1.473
784.2	1.386
784.4	1.381
784.6	1.370
784.8	1.385
785.0	1.474
785.2	1.427
785.4	1.383
785.6	1.158
785.8	1.095
786.0	1.192
786.2	1.258
786.4	1.409
786.6	1.618
786.8	1.654
787.0	1.561
787.2	1.488
787.4	1.349
787.6	1.426
787.8	1.415
788.0	1.417
788.2	1.364
788.4	1.374
788.6	1.439
788.8	1.518
789.0	1.447
789.2	1.537
789.4	1.555
789.6	1.483
789.8	1.455
790.0	1.432
790.2	1.476
790.4	1.661
790.6	1.778
790.8	1.672
791.0	1.605
791.2	1.599
791.4	1.637
791.6	1.705
791.8	1.805
792.0	1.783
792.2	1.828
792.4	1.720
792.6	1.621
792.8	1.477
793.0	1.371
793.2	1.529
793.4	1.595
793.6	1.586
793.8	1.691
794.0	1.839
794.2	1.940
794.4	2.117
794.6	2.057
794.8	1.946
795.0	1.758
795.2	1.615
795.4	1.550
795.6	1.549
795.8	1.756
796.0	1.871
796.2	1.980
796.4	1.974
796.6	1.976
796.8	1.810
797.0	1.896
797.2	1.816
797.4	1.898
797.6	1.905
797.8	1.749
798.0	1.766
798.2	1.864
798.4	2.054
798.6	2.101
798.8	2.001
799.0	1.672
799.2	1.800
799.4	1.726
799.6	1.981
799.8	2.126
800.0	1.962

