Sample:	'20211010A(EM)
File name:	G-NI 10.FDS
Run date:	'17:06:41, 06/19/2023
Operator:	Administrator
Comment:	'

Instrument
Model:	F-4700 FL Spectrophotometer
Serial number:	2019-001
ROM Version:	5J24010 00

Instrument parameters
Measurement type:	Wavelength scan
Scan mode:	Emission
Data mode:	Fluorescence
EX WL:	400.0 nm
EM  Start WL:	420.0 nm
EM  End WL:	800.0 nm
Scan speed:	1200 nm/min
Delay:	0.0 s
EX Slit:	10.0 nm
EM Slit:	10.0 nm
PMT Voltage:	500 V
Response:	0.002 s
Corrected spectra:	Off
Shutter control:	On

Processing performed
Savitsky-Golay smoothed
Smoothing order:	3
Number of points:	7
Number of times:	1

Peak integration
Integration method:	Rectangular
Sensitivity:	1
Threshold:	1.000

Peaks
No.	Start(nm)	Apex(nm)	End(nm)	Height(Data)	Valley(nm)	Valley(Data)
1	420.0	533.8	534.8	423.8	534.8	417.0
2	534.8	536.8	538.2	422.2	538.2	417.7
3	538.2	539.4	540.2	425.3	540.2	421.6
4	540.2	540.6	542.4	426.3	542.4	417.3
5	542.4	543.2	544.6	422.2	544.6	413.3
6	544.6	545.2	634.4	418.9	634.4	72.39
7	634.4	635.0	660.4	73.85	660.4	32.71
8	660.4	660.8	667.4	33.85	667.4	25.72
9	667.4	668.0	669.0	27.30	669.0	24.59
10	669.0	670.2	787.6	25.94	787.6	0.774

Data points
nm	Data
420.0	0.659
420.2	0.524
420.4	0.478
420.6	0.484
420.8	0.504
421.0	0.458
421.2	0.431
421.4	0.398
421.6	0.386
421.8	0.448
422.0	0.501
422.2	0.463
422.4	0.477
422.6	0.430
422.8	0.492
423.0	0.430
423.2	0.481
423.4	0.488
423.6	0.579
423.8	0.622
424.0	0.675
424.2	0.543
424.4	0.426
424.6	0.317
424.8	0.341
425.0	0.464
425.2	0.628
425.4	0.716
425.6	0.722
425.8	0.683
426.0	0.639
426.2	0.654
426.4	0.676
426.6	0.648
426.8	0.526
427.0	0.451
427.2	0.457
427.4	0.476
427.6	0.484
427.8	0.539
428.0	0.476
428.2	0.411
428.4	0.444
428.6	0.483
428.8	0.507
429.0	0.603
429.2	0.586
429.4	0.383
429.6	0.396
429.8	0.489
430.0	0.481
430.2	0.558
430.4	0.552
430.6	0.498
430.8	0.588
431.0	0.694
431.2	0.600
431.4	0.583
431.6	0.551
431.8	0.526
432.0	0.517
432.2	0.506
432.4	0.468
432.6	0.564
432.8	0.572
433.0	0.510
433.2	0.504
433.4	0.390
433.6	0.496
433.8	0.646
434.0	0.686
434.2	0.588
434.4	0.581
434.6	0.384
434.8	0.443
435.0	0.488
435.2	0.554
435.4	0.539
435.6	0.519
435.8	0.529
436.0	0.575
436.2	0.635
436.4	0.684
436.6	0.613
436.8	0.489
437.0	0.467
437.2	0.462
437.4	0.472
437.6	0.523
437.8	0.414
438.0	0.398
438.2	0.370
438.4	0.516
438.6	0.542
438.8	0.648
439.0	0.593
439.2	0.566
439.4	0.519
439.6	0.520
439.8	0.523
440.0	0.630
440.2	0.606
440.4	0.573
440.6	0.515
440.8	0.473
441.0	0.485
441.2	0.583
441.4	0.645
441.6	0.630
441.8	0.523
442.0	0.493
442.2	0.452
442.4	0.621
442.6	0.774
442.8	0.783
443.0	0.664
443.2	0.553
443.4	0.401
443.6	0.394
443.8	0.507
444.0	0.584
444.2	0.667
444.4	0.653
444.6	0.581
444.8	0.534
445.0	0.573
445.2	0.564
445.4	0.593
445.6	0.478
445.8	0.427
446.0	0.450
446.2	0.490
446.4	0.532
446.6	0.550
446.8	0.484
447.0	0.469
447.2	0.507
447.4	0.516
447.6	0.638
447.8	0.594
448.0	0.523
448.2	0.534
448.4	0.520
448.6	0.556
448.8	0.642
449.0	0.592
449.2	0.604
449.4	0.554
449.6	0.527
449.8	0.584
450.0	0.499
450.2	0.503
450.4	0.598
450.6	0.497
450.8	0.521
451.0	0.523
451.2	0.575
451.4	0.633
451.6	0.717
451.8	0.623
452.0	0.665
452.2	0.676
452.4	0.749
452.6	0.668
452.8	0.562
453.0	0.467
453.2	0.434
453.4	0.544
453.6	0.630
453.8	0.549
454.0	0.555
454.2	0.679
454.4	0.626
454.6	0.699
454.8	0.677
455.0	0.565
455.2	0.527
455.4	0.638
455.6	0.648
455.8	0.733
456.0	0.713
456.2	0.604
456.4	0.475
456.6	0.437
456.8	0.361
457.0	0.454
457.2	0.507
457.4	0.540
457.6	0.687
457.8	0.723
458.0	0.731
458.2	0.821
458.4	0.790
458.6	0.752
458.8	0.738
459.0	0.644
459.2	0.595
459.4	0.570
459.6	0.628
459.8	0.630
460.0	0.671
460.2	0.662
460.4	0.636
460.6	0.640
460.8	0.683
461.0	0.625
461.2	0.572
461.4	0.529
461.6	0.462
461.8	0.435
462.0	0.411
462.2	0.481
462.4	0.482
462.6	0.549
462.8	0.708
463.0	0.681
463.2	0.711
463.4	0.800
463.6	0.796
463.8	0.686
464.0	0.692
464.2	0.627
464.4	0.743
464.6	0.944
464.8	1.079
465.0	1.057
465.2	0.947
465.4	0.890
465.6	0.920
465.8	0.847
466.0	0.783
466.2	0.780
466.4	0.889
466.6	0.924
466.8	0.994
467.0	0.861
467.2	0.858
467.4	0.872
467.6	1.047
467.8	1.066
468.0	1.101
468.2	1.109
468.4	1.105
468.6	1.037
468.8	0.997
469.0	0.976
469.2	0.942
469.4	1.021
469.6	1.084
469.8	1.175
470.0	1.246
470.2	1.270
470.4	1.260
470.6	1.273
470.8	1.321
471.0	1.436
471.2	1.473
471.4	1.329
471.6	1.345
471.8	1.365
472.0	1.473
472.2	1.629
472.4	1.812
472.6	1.746
472.8	1.790
473.0	1.728
473.2	1.746
473.4	1.806
473.6	1.740
473.8	1.758
474.0	2.073
474.2	2.113
474.4	2.171
474.6	2.304
474.8	2.120
475.0	2.281
475.2	2.430
475.4	2.389
475.6	2.421
475.8	2.633
476.0	2.822
476.2	3.043
476.4	2.976
476.6	2.951
476.8	3.078
477.0	3.259
477.2	3.479
477.4	3.655
477.6	3.762
477.8	3.642
478.0	3.974
478.2	4.088
478.4	4.356
478.6	4.307
478.8	4.114
479.0	3.989
479.2	4.293
479.4	4.520
479.6	4.971
479.8	5.190
480.0	5.284
480.2	5.703
480.4	6.036
480.6	5.788
480.8	5.813
481.0	5.658
481.2	5.725
481.4	6.060
481.6	6.700
481.8	6.929
482.0	7.491
482.2	7.495
482.4	7.846
482.6	8.208
482.8	8.606
483.0	8.964
483.2	9.136
483.4	8.942
483.6	9.332
483.8	9.643
484.0	9.890
484.2	10.51
484.4	10.67
484.6	11.01
484.8	11.51
485.0	11.99
485.2	12.45
485.4	12.64
485.6	13.06
485.8	13.75
486.0	14.41
486.2	15.16
486.4	15.79
486.6	15.92
486.8	16.35
487.0	16.90
487.2	17.37
487.4	17.98
487.6	18.63
487.8	19.34
488.0	19.68
488.2	19.72
488.4	19.43
488.6	20.29
488.8	21.43
489.0	22.90
489.2	24.06
489.4	24.18
489.6	24.22
489.8	24.82
490.0	25.67
490.2	26.60
490.4	27.53
490.6	27.99
490.8	29.51
491.0	30.43
491.2	31.07
491.4	31.92
491.6	32.30
491.8	32.61
492.0	34.30
492.2	35.99
492.4	37.50
492.6	38.90
492.8	39.21
493.0	39.55
493.2	40.45
493.4	41.59
493.6	42.98
493.8	44.83
494.0	46.01
494.2	47.47
494.4	49.45
494.6	50.22
494.8	51.12
495.0	52.67
495.2	53.52
495.4	54.87
495.6	55.95
495.8	56.90
496.0	58.67
496.2	60.60
496.4	62.67
496.6	64.07
496.8	64.16
497.0	65.33
497.2	66.37
497.4	67.85
497.6	70.19
497.8	72.32
498.0	74.07
498.2	76.43
498.4	77.94
498.6	79.70
498.8	81.07
499.0	81.89
499.2	83.67
499.4	86.60
499.6	88.96
499.8	91.35
500.0	93.65
500.2	94.45
500.4	96.85
500.6	99.75
500.8	101.1
501.0	103.1
501.2	105.7
501.4	106.7
501.6	108.3
501.8	110.5
502.0	113.0
502.2	116.1
502.4	119.9
502.6	121.8
502.8	123.5
503.0	126.0
503.2	128.5
503.4	129.2
503.6	130.7
503.8	131.9
504.0	134.5
504.2	139.1
504.4	143.0
504.6	144.9
504.8	145.7
505.0	146.3
505.2	149.0
505.4	152.0
505.6	155.0
505.8	158.1
506.0	161.1
506.2	163.7
506.4	167.9
506.6	169.4
506.8	171.0
507.0	173.2
507.2	177.4
507.4	179.7
507.6	183.2
507.8	184.1
508.0	185.3
508.2	188.3
508.4	191.7
508.6	194.6
508.8	195.9
509.0	197.0
509.2	198.2
509.4	200.7
509.6	204.5
509.8	208.9
510.0	211.7
510.2	214.8
510.4	216.4
510.6	218.2
510.8	222.1
511.0	225.4
511.2	229.3
511.4	233.1
511.6	234.9
511.8	238.6
512.0	241.9
512.2	244.8
512.4	247.8
512.6	249.4
512.8	249.5
513.0	253.4
513.2	254.5
513.4	256.0
513.6	258.4
513.8	259.4
514.0	261.9
514.2	265.8
514.4	268.8
514.6	272.5
514.8	275.0
515.0	278.4
515.2	281.9
515.4	283.8
515.6	286.0
515.8	289.0
516.0	289.9
516.2	290.2
516.4	292.7
516.6	296.5
516.8	297.9
517.0	301.2
517.2	304.1
517.4	303.6
517.6	306.0
517.8	308.1
518.0	307.5
518.2	309.6
518.4	313.5
518.6	314.8
518.8	319.8
519.0	323.4
519.2	324.9
519.4	329.0
519.6	329.7
519.8	329.0
520.0	332.3
520.2	334.1
520.4	335.9
520.6	340.4
520.8	341.7
521.0	343.6
521.2	345.1
521.4	345.8
521.6	346.6
521.8	349.7
522.0	352.5
522.2	354.3
522.4	356.6
522.6	359.0
522.8	359.3
523.0	363.2
523.2	362.8
523.4	361.8
523.6	363.9
523.8	366.3
524.0	368.6
524.2	373.1
524.4	372.6
524.6	372.7
524.8	373.2
525.0	374.5
525.2	377.4
525.4	379.0
525.6	379.8
525.8	379.8
526.0	380.2
526.2	380.9
526.4	384.7
526.6	387.0
526.8	388.3
527.0	387.3
527.2	388.2
527.4	388.8
527.6	393.1
527.8	396.4
528.0	396.5
528.2	394.3
528.4	395.0
528.6	396.7
528.8	400.2
529.0	402.6
529.2	403.6
529.4	401.3
529.6	403.0
529.8	405.1
530.0	407.7
530.2	408.7
530.4	407.4
530.6	405.0
530.8	406.6
531.0	408.3
531.2	412.8
531.4	414.2
531.6	411.8
531.8	409.6
532.0	410.3
532.2	410.4
532.4	412.5
532.6	412.8
532.8	413.2
533.0	413.4
533.2	415.1
533.4	418.3
533.6	422.0
533.8	423.8
534.0	423.7
534.2	421.6
534.4	417.9
534.6	417.0
534.8	417.0
535.0	418.5
535.2	417.3
535.4	418.2
535.6	420.2
535.8	421.1
536.0	420.1
536.2	420.8
536.4	419.8
536.6	420.1
536.8	422.2
537.0	421.0
537.2	420.1
537.4	420.3
537.6	420.7
537.8	419.2
538.0	418.9
538.2	417.7
538.4	418.8
538.6	420.2
538.8	422.4
539.0	422.3
539.2	423.7
539.4	425.3
539.6	422.8
539.8	421.9
540.0	421.8
540.2	421.6
540.4	423.4
540.6	426.3
540.8	424.0
541.0	424.1
541.2	422.5
541.4	422.4
541.6	421.6
541.8	422.2
542.0	419.9
542.2	418.4
542.4	417.3
542.6	418.1
542.8	418.9
543.0	421.7
543.2	422.2
543.4	421.3
543.6	420.3
543.8	419.5
544.0	418.4
544.2	416.3
544.4	414.9
544.6	413.3
544.8	416.1
545.0	418.2
545.2	418.9
545.4	418.3
545.6	418.2
545.8	415.4
546.0	415.0
546.2	413.4
546.4	414.7
546.6	415.8
546.8	415.8
547.0	415.4
547.2	415.2
547.4	412.9
547.6	411.5
547.8	408.8
548.0	406.7
548.2	407.7
548.4	409.2
548.6	409.4
548.8	408.5
549.0	408.4
549.2	407.2
549.4	406.1
549.6	404.1
549.8	403.6
550.0	403.5
550.2	403.2
550.4	401.1
550.6	399.7
550.8	399.7
551.0	402.8
551.2	402.8
551.4	403.3
551.6	400.8
551.8	399.0
552.0	399.5
552.2	398.0
552.4	394.7
552.6	394.6
552.8	391.9
553.0	392.3
553.2	392.0
553.4	390.7
553.6	390.8
553.8	392.7
554.0	391.8
554.2	389.8
554.4	385.9
554.6	386.1
554.8	385.2
555.0	385.0
555.2	384.2
555.4	381.2
555.6	380.7
555.8	382.6
556.0	382.8
556.2	381.8
556.4	381.0
556.6	379.7
556.8	380.4
557.0	378.3
557.2	377.1
557.4	375.5
557.6	376.8
557.8	378.4
558.0	378.0
558.2	375.8
558.4	374.3
558.6	371.5
558.8	372.4
559.0	371.8
559.2	369.2
559.4	367.2
559.6	365.6
559.8	365.1
560.0	366.9
560.2	366.3
560.4	365.0
560.6	361.1
560.8	359.8
561.0	358.7
561.2	359.5
561.4	358.4
561.6	359.4
561.8	357.4
562.0	357.7
562.2	356.5
562.4	354.5
562.6	352.6
562.8	351.0
563.0	349.0
563.2	349.7
563.4	350.6
563.6	350.8
563.8	349.8
564.0	348.3
564.2	348.4
564.4	348.2
564.6	348.1
564.8	347.0
565.0	339.9
565.2	338.9
565.4	338.4
565.6	337.7
565.8	338.1
566.0	339.3
566.2	334.7
566.4	332.6
566.6	332.6
566.8	332.3
567.0	333.4
567.2	334.5
567.4	333.1
567.6	329.3
567.8	329.2
568.0	328.5
568.2	328.0
568.4	325.9
568.6	323.2
568.8	320.9
569.0	321.1
569.2	321.9
569.4	321.2
569.6	318.9
569.8	317.6
570.0	316.6
570.2	317.1
570.4	318.1
570.6	316.9
570.8	313.5
571.0	313.1
571.2	310.5
571.4	308.9
571.6	308.1
571.8	307.2
572.0	305.8
572.2	305.2
572.4	304.5
572.6	302.7
572.8	301.3
573.0	300.3
573.2	299.2
573.4	298.9
573.6	299.6
573.8	298.2
574.0	297.3
574.2	294.8
574.4	293.1
574.6	292.3
574.8	293.1
575.0	291.6
575.2	291.4
575.4	288.7
575.6	289.3
575.8	288.9
576.0	289.7
576.2	286.2
576.4	284.8
576.6	281.3
576.8	280.0
577.0	281.0
577.2	282.0
577.4	279.9
577.6	280.2
577.8	276.9
578.0	273.8
578.2	272.6
578.4	273.1
578.6	272.0
578.8	272.8
579.0	271.9
579.2	271.4
579.4	270.0
579.6	270.1
579.8	268.2
580.0	267.0
580.2	264.1
580.4	261.6
580.6	261.5
580.8	260.8
581.0	259.7
581.2	258.3
581.4	255.8
581.6	254.2
581.8	255.8
582.0	256.4
582.2	255.7
582.4	254.4
582.6	252.6
582.8	251.4
583.0	252.5
583.2	253.0
583.4	253.2
583.6	251.6
583.8	248.2
584.0	245.4
584.2	244.1
584.4	244.3
584.6	245.4
584.8	246.5
585.0	247.4
585.2	245.8
585.4	243.0
585.6	240.9
585.8	239.3
586.0	237.4
586.2	237.4
586.4	236.5
586.6	234.4
586.8	233.9
587.0	234.6
587.2	233.7
587.4	233.2
587.6	233.1
587.8	231.5
588.0	229.7
588.2	227.7
588.4	225.8
588.6	223.8
588.8	222.4
589.0	222.8
589.2	223.7
589.4	223.4
589.6	222.9
589.8	220.1
590.0	216.5
590.2	215.2
590.4	215.1
590.6	214.5
590.8	215.5
591.0	215.1
591.2	214.0
591.4	212.9
591.6	211.4
591.8	208.7
592.0	208.7
592.2	209.3
592.4	209.2
592.6	207.8
592.8	206.5
593.0	203.5
593.2	201.7
593.4	202.2
593.6	203.9
593.8	203.0
594.0	202.4
594.2	201.5
594.4	198.5
594.6	198.6
594.8	198.5
595.0	196.8
595.2	195.7
595.4	196.0
595.6	193.7
595.8	194.5
596.0	191.4
596.2	190.4
596.4	188.8
596.6	189.0
596.8	187.8
597.0	188.9
597.2	187.1
597.4	187.1
597.6	185.6
597.8	183.7
598.0	180.8
598.2	180.9
598.4	182.5
598.6	182.1
598.8	182.4
599.0	179.7
599.2	176.7
599.4	175.2
599.6	176.0
599.8	176.0
600.0	177.1
600.2	175.9
600.4	174.8
600.6	173.4
600.8	172.6
601.0	172.6
601.2	171.4
601.4	169.9
601.6	169.6
601.8	169.0
602.0	167.9
602.2	167.7
602.4	167.8
602.6	168.4
602.8	168.9
603.0	167.2
603.2	164.7
603.4	162.0
603.6	160.9
603.8	161.1
604.0	160.1
604.2	158.8
604.4	158.3
604.6	156.6
604.8	155.9
605.0	155.7
605.2	154.6
605.4	154.6
605.6	155.9
605.8	155.0
606.0	154.6
606.2	154.2
606.4	153.4
606.6	151.9
606.8	152.0
607.0	150.0
607.2	150.3
607.4	149.6
607.6	149.5
607.8	149.3
608.0	148.9
608.2	146.1
608.4	144.3
608.6	143.5
608.8	143.4
609.0	144.3
609.2	144.6
609.4	143.1
609.6	140.9
609.8	140.3
610.0	139.7
610.2	139.1
610.4	137.6
610.6	136.3
610.8	135.0
611.0	134.9
611.2	135.9
611.4	134.9
611.6	133.7
611.8	133.3
612.0	133.0
612.2	131.9
612.4	131.5
612.6	129.1
612.8	128.9
613.0	128.7
613.2	129.0
613.4	128.8
613.6	128.5
613.8	127.4
614.0	126.5
614.2	125.3
614.4	124.4
614.6	124.3
614.8	124.2
615.0	123.6
615.2	121.9
615.4	120.9
615.6	119.9
615.8	119.1
616.0	119.3
616.2	118.6
616.4	117.3
616.6	116.4
616.8	116.7
617.0	115.7
617.2	116.1
617.4	115.2
617.6	114.7
617.8	113.3
618.0	113.6
618.2	113.0
618.4	113.2
618.6	111.9
618.8	110.7
619.0	110.6
619.2	110.2
619.4	111.0
619.6	110.8
619.8	109.5
620.0	107.5
620.2	107.3
620.4	106.0
620.6	106.1
620.8	106.7
621.0	106.3
621.2	105.2
621.4	103.4
621.6	102.2
621.8	101.7
622.0	102.7
622.2	103.0
622.4	103.7
622.6	102.8
622.8	103.1
623.0	103.0
623.2	101.8
623.4	100.8
623.6	100.6
623.8	99.48
624.0	99.76
624.2	99.85
624.4	98.30
624.6	96.66
624.8	95.35
625.0	94.17
625.2	94.04
625.4	95.33
625.6	94.81
625.8	93.76
626.0	92.79
626.2	91.70
626.4	90.77
626.6	91.82
626.8	91.43
627.0	90.57
627.2	90.52
627.4	89.75
627.6	88.90
627.8	88.80
628.0	88.06
628.2	88.32
628.4	88.29
628.6	88.09
628.8	87.09
629.0	85.54
629.2	84.18
629.4	83.99
629.6	83.43
629.8	83.62
630.0	82.72
630.2	82.33
630.4	81.43
630.6	80.85
630.8	80.93
631.0	80.54
631.2	79.29
631.4	78.94
631.6	78.69
631.8	79.17
632.0	79.32
632.2	79.17
632.4	78.71
632.6	77.97
632.8	77.75
633.0	76.63
633.2	75.01
633.4	74.19
633.6	73.71
633.8	73.77
634.0	73.43
634.2	72.66
634.4	72.39
634.6	72.52
634.8	72.87
635.0	73.85
635.2	73.48
635.4	72.98
635.6	72.49
635.8	71.44
636.0	70.43
636.2	68.52
636.4	67.55
636.6	67.28
636.8	67.57
637.0	68.64
637.2	69.13
637.4	68.07
637.6	68.03
637.8	67.31
638.0	66.94
638.2	66.40
638.4	65.50
638.6	65.57
638.8	64.84
639.0	64.27
639.2	64.14
639.4	63.21
639.6	61.96
639.8	62.42
640.0	61.45
640.2	61.55
640.4	62.40
640.6	61.86
640.8	60.94
641.0	60.71
641.2	59.80
641.4	59.87
641.6	60.65
641.8	59.70
642.0	59.65
642.2	59.37
642.4	58.64
642.6	58.92
642.8	58.75
643.0	58.55
643.2	58.53
643.4	57.25
643.6	55.72
643.8	55.52
644.0	55.02
644.2	55.13
644.4	56.03
644.6	55.44
644.8	55.08
645.0	54.78
645.2	54.82
645.4	54.22
645.6	54.02
645.8	52.32
646.0	50.87
646.2	50.29
646.4	50.58
646.6	50.86
646.8	50.62
647.0	50.65
647.2	50.48
647.4	50.50
647.6	49.48
647.8	49.81
648.0	48.90
648.2	48.79
648.4	47.85
648.6	47.25
648.8	47.16
649.0	48.00
649.2	47.82
649.4	47.55
649.6	46.91
649.8	46.22
650.0	45.92
650.2	46.19
650.4	46.10
650.6	45.40
650.8	45.54
651.0	45.06
651.2	44.70
651.4	45.17
651.6	44.64
651.8	44.25
652.0	44.28
652.2	43.85
652.4	42.96
652.6	42.19
652.8	42.28
653.0	42.91
653.2	42.84
653.4	43.17
653.6	42.75
653.8	41.79
654.0	41.68
654.2	41.15
654.4	39.80
654.6	39.70
654.8	39.62
655.0	39.14
655.2	39.07
655.4	39.26
655.6	38.38
655.8	38.62
656.0	38.56
656.2	38.16
656.4	38.22
656.6	38.11
656.8	37.10
657.0	36.87
657.2	36.44
657.4	35.92
657.6	36.28
657.8	36.55
658.0	36.14
658.2	35.59
658.4	35.96
658.6	36.08
658.8	36.47
659.0	36.04
659.2	34.88
659.4	33.51
659.6	33.41
659.8	33.26
660.0	33.22
660.2	32.90
660.4	32.71
660.6	33.15
660.8	33.85
661.0	33.71
661.2	33.69
661.4	33.10
661.6	32.36
661.8	32.24
662.0	31.63
662.2	30.74
662.4	30.46
662.6	30.52
662.8	31.04
663.0	31.16
663.2	30.73
663.4	30.40
663.6	29.68
663.8	29.39
664.0	29.40
664.2	28.97
664.4	28.84
664.6	29.48
664.8	29.26
665.0	29.10
665.2	28.64
665.4	28.41
665.6	28.16
665.8	28.62
666.0	28.28
666.2	27.95
666.4	27.38
666.6	27.03
666.8	26.44
667.0	25.98
667.2	26.04
667.4	25.72
667.6	26.14
667.8	26.73
668.0	27.30
668.2	27.01
668.4	26.82
668.6	25.54
668.8	24.92
669.0	24.59
669.2	25.04
669.4	25.04
669.6	25.43
669.8	25.75
670.0	25.78
670.2	25.94
670.4	25.46
670.6	24.26
670.8	23.52
671.0	22.98
671.2	22.66
671.4	23.37
671.6	23.35
671.8	23.01
672.0	22.82
672.2	22.13
672.4	22.30
672.6	22.79
672.8	22.98
673.0	22.84
673.2	22.78
673.4	22.55
673.6	22.61
673.8	22.44
674.0	22.52
674.2	22.10
674.4	21.82
674.6	21.95
674.8	21.57
675.0	21.14
675.2	21.13
675.4	20.67
675.6	20.46
675.8	20.45
676.0	20.53
676.2	20.69
676.4	20.39
676.6	20.17
676.8	20.34
677.0	19.83
677.2	19.68
677.4	19.57
677.6	18.68
677.8	18.77
678.0	18.83
678.2	18.78
678.4	18.93
678.6	18.51
678.8	18.15
679.0	17.95
679.2	17.87
679.4	18.37
679.6	18.28
679.8	17.91
680.0	17.67
680.2	17.00
680.4	17.17
680.6	17.28
680.8	17.43
681.0	17.68
681.2	17.31
681.4	17.10
681.6	16.76
681.8	16.53
682.0	16.53
682.2	16.54
682.4	16.49
682.6	16.76
682.8	16.58
683.0	16.13
683.2	15.73
683.4	15.69
683.6	15.90
683.8	16.18
684.0	16.44
684.2	15.73
684.4	15.39
684.6	15.45
684.8	15.30
685.0	15.58
685.2	15.67
685.4	14.96
685.6	14.62
685.8	14.61
686.0	14.40
686.2	14.77
686.4	14.80
686.6	14.29
686.8	14.07
687.0	13.87
687.2	14.24
687.4	14.22
687.6	14.30
687.8	14.45
688.0	14.28
688.2	14.41
688.4	14.41
688.6	13.61
688.8	13.29
689.0	13.53
689.2	13.56
689.4	13.71
689.6	13.69
689.8	13.38
690.0	13.41
690.2	13.26
690.4	13.07
690.6	12.91
690.8	12.95
691.0	12.73
691.2	12.55
691.4	12.41
691.6	12.13
691.8	12.23
692.0	12.14
692.2	12.06
692.4	12.15
692.6	12.38
692.8	12.46
693.0	12.32
693.2	12.27
693.4	12.10
693.6	11.96
693.8	11.51
694.0	11.81
694.2	11.91
694.4	12.01
694.6	11.71
694.8	11.40
695.0	11.13
695.2	11.36
695.4	11.64
695.6	11.60
695.8	11.26
696.0	10.84
696.2	10.76
696.4	10.73
696.6	11.05
696.8	11.21
697.0	11.03
697.2	10.33
697.4	10.04
697.6	9.868
697.8	10.12
698.0	10.45
698.2	10.84
698.4	10.70
698.6	10.54
698.8	10.07
699.0	9.842
699.2	9.808
699.4	9.666
699.6	9.766
699.8	9.550
700.0	9.290
700.2	9.421
700.4	9.565
700.6	9.334
700.8	9.514
701.0	9.379
701.2	9.262
701.4	9.095
701.6	9.123
701.8	9.244
702.0	9.195
702.2	9.322
702.4	9.440
702.6	9.482
702.8	9.601
703.0	9.416
703.2	9.034
703.4	8.941
703.6	8.841
703.8	8.997
704.0	8.748
704.2	8.609
704.4	8.315
704.6	8.328
704.8	8.346
705.0	8.525
705.2	8.721
705.4	8.635
705.6	8.346
705.8	8.269
706.0	8.016
706.2	8.086
706.4	8.314
706.6	8.345
706.8	8.164
707.0	8.062
707.2	7.600
707.4	7.553
707.6	7.703
707.8	8.090
708.0	7.831
708.2	7.839
708.4	7.607
708.6	7.661
708.8	7.529
709.0	7.451
709.2	7.186
709.4	7.205
709.6	7.172
709.8	7.490
710.0	7.309
710.2	7.310
710.4	7.085
710.6	7.108
710.8	6.932
711.0	6.898
711.2	6.688
711.4	6.924
711.6	7.049
711.8	7.300
712.0	7.406
712.2	7.545
712.4	7.286
712.6	7.161
712.8	7.023
713.0	6.908
713.2	7.044
713.4	6.954
713.6	6.728
713.8	6.450
714.0	6.263
714.2	6.378
714.4	6.579
714.6	6.330
714.8	6.421
715.0	6.548
715.2	6.540
715.4	6.630
715.6	6.660
715.8	6.452
716.0	6.536
716.2	6.750
716.4	6.541
716.6	6.427
716.8	6.145
717.0	6.053
717.2	5.961
717.4	6.195
717.6	6.110
717.8	6.326
718.0	6.130
718.2	6.245
718.4	5.831
718.6	5.722
718.8	5.356
719.0	5.493
719.2	5.397
719.4	5.573
719.6	5.591
719.8	5.684
720.0	5.562
720.2	5.696
720.4	5.508
720.6	5.302
720.8	5.125
721.0	5.126
721.2	5.104
721.4	5.451
721.6	5.559
721.8	5.523
722.0	5.402
722.2	5.178
722.4	4.803
722.6	4.936
722.8	4.665
723.0	4.728
723.2	4.949
723.4	4.952
723.6	4.824
723.8	4.982
724.0	4.785
724.2	4.934
724.4	5.067
724.6	5.062
724.8	4.885
725.0	4.923
725.2	4.874
725.4	4.916
725.6	4.572
725.8	4.638
726.0	4.594
726.2	4.549
726.4	4.476
726.6	4.551
726.8	4.284
727.0	4.254
727.2	4.280
727.4	4.261
727.6	4.065
727.8	4.233
728.0	4.039
728.2	3.896
728.4	3.903
728.6	3.927
728.8	3.701
729.0	3.735
729.2	3.672
729.4	3.896
729.6	3.822
729.8	4.032
730.0	4.188
730.2	4.310
730.4	4.361
730.6	4.179
730.8	3.701
731.0	3.613
731.2	3.594
731.4	3.795
731.6	4.050
731.8	4.118
732.0	4.157
732.2	4.046
732.4	3.672
732.6	3.624
732.8	3.745
733.0	3.778
733.2	3.791
733.4	3.685
733.6	3.456
733.8	3.502
734.0	3.681
734.2	3.669
734.4	3.488
734.6	3.308
734.8	3.016
735.0	3.122
735.2	3.046
735.4	3.145
735.6	3.176
735.8	3.423
736.0	3.675
736.2	3.910
736.4	3.553
736.6	3.428
736.8	3.148
737.0	3.100
737.2	3.198
737.4	3.091
737.6	3.061
737.8	3.077
738.0	3.029
738.2	3.030
738.4	2.990
738.6	2.868
738.8	2.953
739.0	3.033
739.2	2.985
739.4	3.254
739.6	3.320
739.8	3.306
740.0	3.101
740.2	2.817
740.4	2.595
740.6	2.695
740.8	2.652
741.0	2.712
741.2	2.854
741.4	2.831
741.6	2.722
741.8	2.779
742.0	2.548
742.2	2.519
742.4	2.670
742.6	2.635
742.8	2.360
743.0	2.528
743.2	2.503
743.4	2.661
743.6	2.590
743.8	2.500
744.0	2.327
744.2	2.420
744.4	2.441
744.6	2.564
744.8	2.597
745.0	2.614
745.2	2.682
745.4	2.567
745.6	2.380
745.8	2.043
746.0	2.026
746.2	2.032
746.4	1.963
746.6	1.987
746.8	1.982
747.0	1.814
747.2	2.175
747.4	2.339
747.6	2.196
747.8	2.348
748.0	2.226
748.2	2.091
748.4	2.122
748.6	2.145
748.8	2.074
749.0	2.028
749.2	1.946
749.4	2.001
749.6	1.875
749.8	1.932
750.0	1.830
750.2	1.624
750.4	1.894
750.6	2.218
750.8	2.298
751.0	2.421
751.2	2.230
751.4	2.013
751.6	2.247
751.8	2.159
752.0	2.014
752.2	2.144
752.4	2.036
752.6	2.042
752.8	2.289
753.0	2.324
753.2	2.185
753.4	2.062
753.6	1.707
753.8	1.780
754.0	1.821
754.2	2.027
754.4	2.077
754.6	2.039
754.8	1.786
755.0	1.972
755.2	1.907
755.4	2.057
755.6	2.085
755.8	2.192
756.0	1.955
756.2	1.823
756.4	1.832
756.6	1.808
756.8	1.835
757.0	1.932
757.2	1.916
757.4	1.798
757.6	1.853
757.8	1.739
758.0	1.758
758.2	1.755
758.4	1.679
758.6	1.698
758.8	1.692
759.0	1.708
759.2	1.777
759.4	1.826
759.6	1.633
759.8	1.596
760.0	1.510
760.2	1.486
760.4	1.505
760.6	1.619
760.8	1.707
761.0	1.590
761.2	1.529
761.4	1.523
761.6	1.484
761.8	1.539
762.0	1.586
762.2	1.370
762.4	1.281
762.6	1.339
762.8	1.483
763.0	1.667
763.2	1.560
763.4	1.300
763.6	1.309
763.8	1.506
764.0	1.610
764.2	1.784
764.4	1.587
764.6	1.424
764.8	1.404
765.0	1.509
765.2	1.447
765.4	1.489
765.6	1.290
765.8	1.350
766.0	1.339
766.2	1.481
766.4	1.512
766.6	1.546
766.8	1.418
767.0	1.504
767.2	1.578
767.4	1.651
767.6	1.407
767.8	1.285
768.0	1.163
768.2	1.098
768.4	1.182
768.6	1.341
768.8	1.282
769.0	1.369
769.2	1.384
769.4	1.354
769.6	1.356
769.8	1.405
770.0	1.233
770.2	1.221
770.4	1.136
770.6	1.203
770.8	1.228
771.0	1.286
771.2	1.106
771.4	1.079
771.6	1.109
771.8	1.181
772.0	1.254
772.2	1.354
772.4	1.279
772.6	1.337
772.8	1.352
773.0	1.327
773.2	1.309
773.4	1.314
773.6	1.146
773.8	1.116
774.0	0.964
774.2	0.940
774.4	1.043
774.6	1.275
774.8	1.307
775.0	1.386
775.2	1.330
775.4	1.130
775.6	1.005
775.8	1.109
776.0	1.127
776.2	1.266
776.4	1.159
776.6	0.963
776.8	0.874
777.0	1.012
777.2	1.114
777.4	1.290
777.6	1.260
777.8	1.213
778.0	1.128
778.2	0.979
778.4	0.968
778.6	1.037
778.8	1.194
779.0	1.316
779.2	1.252
779.4	1.000
779.6	1.078
779.8	1.112
780.0	1.014
780.2	1.136
780.4	1.111
780.6	1.134
780.8	1.179
781.0	1.097
781.2	0.974
781.4	0.977
781.6	0.907
781.8	1.021
782.0	1.054
782.2	1.074
782.4	1.170
782.6	1.197
782.8	1.169
783.0	1.176
783.2	1.169
783.4	1.105
783.6	1.086
783.8	1.183
784.0	1.200
784.2	1.140
784.4	1.061
784.6	0.942
784.8	1.000
785.0	1.050
785.2	1.083
785.4	1.053
785.6	1.089
785.8	1.062
786.0	1.034
786.2	1.076
786.4	1.114
786.6	1.209
786.8	1.368
787.0	1.339
787.2	1.071
787.4	0.964
787.6	0.774
787.8	0.923
788.0	1.071
788.2	1.166
788.4	1.281
788.6	1.413
788.8	1.288
789.0	1.317
789.2	1.209
789.4	1.173
789.6	1.125
789.8	1.216
790.0	1.244
790.2	1.249
790.4	1.246
790.6	1.315
790.8	1.191
791.0	1.239
791.2	1.338
791.4	1.362
791.6	1.428
791.8	1.465
792.0	1.356
792.2	1.379
792.4	1.566
792.6	1.664
792.8	1.651
793.0	1.486
793.2	1.318
793.4	1.420
793.6	1.593
793.8	1.745
794.0	1.764
794.2	1.646
794.4	1.487
794.6	1.538
794.8	1.635
795.0	1.738
795.2	1.868
795.4	1.881
795.6	1.795
795.8	1.720
796.0	1.773
796.2	1.638
796.4	1.718
796.6	1.643
796.8	1.538
797.0	1.511
797.2	1.572
797.4	1.555
797.6	1.665
797.8	1.573
798.0	1.543
798.2	1.632
798.4	1.661
798.6	1.788
798.8	1.784
799.0	1.579
799.2	1.553
799.4	1.705
799.6	1.938
799.8	2.066
800.0	1.940

