Sample:	'20211010A(EM)
File name:	G-NI 3.FDS
Run date:	'16:33:39, 06/19/2023
Operator:	Administrator
Comment:	'

Instrument
Model:	F-4700 FL Spectrophotometer
Serial number:	2019-001
ROM Version:	5J24010 00

Instrument parameters
Measurement type:	Wavelength scan
Scan mode:	Emission
Data mode:	Fluorescence
EX WL:	400.0 nm
EM  Start WL:	420.0 nm
EM  End WL:	800.0 nm
Scan speed:	1200 nm/min
Delay:	0.0 s
EX Slit:	10.0 nm
EM Slit:	10.0 nm
PMT Voltage:	500 V
Response:	0.002 s
Corrected spectra:	Off
Shutter control:	On

Processing performed
Savitsky-Golay smoothed
Smoothing order:	3
Number of points:	7
Number of times:	1

Peak integration
Integration method:	Rectangular
Sensitivity:	1
Threshold:	1.000

Peaks
No.	Start(nm)	Apex(nm)	End(nm)	Height(Data)	Valley(nm)	Valley(Data)
1	420.0	530.0	530.6	337.4	530.6	333.0
2	530.6	534.8	537.0	350.0	537.0	345.0
3	537.0	537.6	538.6	352.7	538.6	349.2
4	538.6	539.6	540.6	352.9	540.6	346.1
5	540.6	541.4	544.0	352.2	544.0	345.3
6	544.0	544.8	546.4	347.7	546.4	339.6
7	546.4	547.2	650.8	342.7	650.8	32.88
8	650.8	651.4	660.8	34.89	660.8	24.17
9	660.8	661.2	710.8	25.20	710.8	4.659
10	710.8	711.4	783.2	5.835	783.2	0.700

Data points
nm	Data
420.0	0.422
420.2	0.578
420.4	0.673
420.6	0.705
420.8	0.629
421.0	0.607
421.2	0.611
421.4	0.516
421.6	0.572
421.8	0.484
422.0	0.364
422.2	0.371
422.4	0.356
422.6	0.201
422.8	0.345
423.0	0.435
423.2	0.491
423.4	0.453
423.6	0.333
423.8	0.159
424.0	0.293
424.2	0.299
424.4	0.454
424.6	0.507
424.8	0.387
425.0	0.442
425.2	0.583
425.4	0.565
425.6	0.577
425.8	0.563
426.0	0.412
426.2	0.401
426.4	0.447
426.6	0.443
426.8	0.488
427.0	0.580
427.2	0.638
427.4	0.594
427.6	0.544
427.8	0.415
428.0	0.412
428.2	0.403
428.4	0.443
428.6	0.425
428.8	0.481
429.0	0.469
429.2	0.530
429.4	0.506
429.6	0.413
429.8	0.322
430.0	0.364
430.2	0.325
430.4	0.430
430.6	0.492
430.8	0.460
431.0	0.491
431.2	0.432
431.4	0.412
431.6	0.475
431.8	0.573
432.0	0.582
432.2	0.531
432.4	0.342
432.6	0.423
432.8	0.506
433.0	0.548
433.2	0.613
433.4	0.518
433.6	0.403
433.8	0.425
434.0	0.505
434.2	0.527
434.4	0.557
434.6	0.483
434.8	0.399
435.0	0.470
435.2	0.499
435.4	0.570
435.6	0.613
435.8	0.557
436.0	0.488
436.2	0.581
436.4	0.597
436.6	0.654
436.8	0.627
437.0	0.517
437.2	0.419
437.4	0.343
437.6	0.367
437.8	0.385
438.0	0.461
438.2	0.504
438.4	0.603
438.6	0.529
438.8	0.501
439.0	0.437
439.2	0.463
439.4	0.419
439.6	0.453
439.8	0.371
440.0	0.429
440.2	0.417
440.4	0.429
440.6	0.427
440.8	0.488
441.0	0.436
441.2	0.560
441.4	0.498
441.6	0.439
441.8	0.390
442.0	0.495
442.2	0.560
442.4	0.662
442.6	0.547
442.8	0.451
443.0	0.323
443.2	0.301
443.4	0.337
443.6	0.336
443.8	0.238
444.0	0.259
444.2	0.326
444.4	0.338
444.6	0.418
444.8	0.415
445.0	0.380
445.2	0.346
445.4	0.338
445.6	0.327
445.8	0.323
446.0	0.396
446.2	0.510
446.4	0.481
446.6	0.480
446.8	0.487
447.0	0.514
447.2	0.591
447.4	0.582
447.6	0.493
447.8	0.520
448.0	0.498
448.2	0.581
448.4	0.528
448.6	0.445
448.8	0.339
449.0	0.300
449.2	0.359
449.4	0.480
449.6	0.443
449.8	0.432
450.0	0.356
450.2	0.299
450.4	0.376
450.6	0.420
450.8	0.441
451.0	0.440
451.2	0.480
451.4	0.454
451.6	0.430
451.8	0.423
452.0	0.531
452.2	0.582
452.4	0.661
452.6	0.529
452.8	0.526
453.0	0.519
453.2	0.539
453.4	0.545
453.6	0.593
453.8	0.603
454.0	0.639
454.2	0.602
454.4	0.449
454.6	0.429
454.8	0.460
455.0	0.465
455.2	0.476
455.4	0.476
455.6	0.451
455.8	0.524
456.0	0.521
456.2	0.475
456.4	0.565
456.6	0.565
456.8	0.595
457.0	0.586
457.2	0.587
457.4	0.568
457.6	0.613
457.8	0.452
458.0	0.386
458.2	0.435
458.4	0.425
458.6	0.429
458.8	0.487
459.0	0.461
459.2	0.477
459.4	0.562
459.6	0.553
459.8	0.542
460.0	0.525
460.2	0.504
460.4	0.494
460.6	0.495
460.8	0.500
461.0	0.594
461.2	0.617
461.4	0.602
461.6	0.591
461.8	0.508
462.0	0.422
462.2	0.518
462.4	0.631
462.6	0.708
462.8	0.721
463.0	0.641
463.2	0.615
463.4	0.698
463.6	0.811
463.8	0.857
464.0	0.864
464.2	0.788
464.4	0.696
464.6	0.690
464.8	0.739
465.0	0.837
465.2	0.902
465.4	0.907
465.6	0.751
465.8	0.703
466.0	0.656
466.2	0.660
466.4	0.758
466.6	0.779
466.8	0.809
467.0	0.855
467.2	0.820
467.4	0.708
467.6	0.736
467.8	0.796
468.0	0.937
468.2	0.926
468.4	0.936
468.6	0.820
468.8	0.769
469.0	0.835
469.2	0.881
469.4	0.971
469.6	1.065
469.8	1.011
470.0	1.081
470.2	1.035
470.4	0.990
470.6	1.013
470.8	1.139
471.0	1.210
471.2	1.369
471.4	1.306
471.6	1.356
471.8	1.206
472.0	1.258
472.2	1.221
472.4	1.081
472.6	1.109
472.8	1.198
473.0	1.288
473.2	1.419
473.4	1.373
473.6	1.378
473.8	1.433
474.0	1.557
474.2	1.729
474.4	1.762
474.6	1.526
474.8	1.493
475.0	1.540
475.2	1.785
475.4	1.951
475.6	2.022
475.8	1.864
476.0	1.938
476.2	2.195
476.4	2.309
476.6	2.390
476.8	2.331
477.0	2.113
477.2	2.169
477.4	2.424
477.6	2.636
477.8	2.865
478.0	3.120
478.2	3.160
478.4	3.232
478.6	3.388
478.8	3.395
479.0	3.329
479.2	3.501
479.4	3.466
479.6	3.379
479.8	3.272
480.0	3.370
480.2	3.670
480.4	4.155
480.6	4.724
480.8	4.954
481.0	4.840
481.2	4.734
481.4	4.751
481.6	5.135
481.8	5.535
482.0	5.737
482.2	5.778
482.4	5.757
482.6	5.557
482.8	5.746
483.0	6.097
483.2	6.263
483.4	6.693
483.6	7.046
483.8	7.111
484.0	7.306
484.2	7.763
484.4	7.827
484.6	8.353
484.8	8.714
485.0	9.008
485.2	9.453
485.4	9.799
485.6	10.17
485.8	10.83
486.0	11.37
486.2	11.68
486.4	12.09
486.6	12.40
486.8	12.62
487.0	12.78
487.2	12.40
487.4	12.41
487.6	12.62
487.8	13.51
488.0	14.39
488.2	15.25
488.4	15.77
488.6	16.39
488.8	16.59
489.0	17.26
489.2	17.50
489.4	18.12
489.6	18.54
489.8	19.43
490.0	20.38
490.2	21.16
490.4	21.31
490.6	21.98
490.8	22.22
491.0	23.33
491.2	24.18
491.4	24.29
491.6	24.35
491.8	24.95
492.0	25.72
492.2	26.80
492.4	28.13
492.6	28.80
492.8	29.51
493.0	30.11
493.2	30.33
493.4	31.50
493.6	33.58
493.8	35.15
494.0	36.31
494.2	37.01
494.4	37.01
494.6	37.84
494.8	39.43
495.0	40.84
495.2	41.96
495.4	42.89
495.6	43.88
495.8	45.61
496.0	46.65
496.2	47.71
496.4	48.83
496.6	49.74
496.8	50.18
497.0	51.64
497.2	52.40
497.4	54.63
497.6	56.86
497.8	59.51
498.0	59.86
498.2	60.57
498.4	61.37
498.6	63.31
498.8	64.87
499.0	66.95
499.2	67.75
499.4	69.78
499.6	71.73
499.8	73.93
500.0	75.36
500.2	76.85
500.4	77.24
500.6	79.45
500.8	80.85
501.0	82.73
501.2	84.20
501.4	86.18
501.6	87.35
501.8	89.54
502.0	90.05
502.2	92.02
502.4	94.00
502.6	96.26
502.8	97.84
503.0	99.44
503.2	100.5
503.4	102.0
503.6	104.5
503.8	106.8
504.0	107.8
504.2	110.1
504.4	113.5
504.6	115.6
504.8	118.2
505.0	120.6
505.2	121.3
505.4	123.6
505.6	126.0
505.8	128.9
506.0	130.9
506.2	133.2
506.4	133.0
506.6	134.9
506.8	136.8
507.0	140.5
507.2	144.6
507.4	147.5
507.6	148.5
507.8	150.2
508.0	151.5
508.2	152.7
508.4	154.5
508.6	155.5
508.8	159.2
509.0	161.7
509.2	165.2
509.4	166.6
509.6	168.2
509.8	169.7
510.0	172.5
510.2	174.6
510.4	178.9
510.6	181.1
510.8	183.7
511.0	185.4
511.2	186.6
511.4	188.0
511.6	189.8
511.8	190.6
512.0	193.4
512.2	196.5
512.4	199.5
512.6	203.0
512.8	204.9
513.0	206.3
513.2	208.7
513.4	211.0
513.6	213.2
513.8	215.3
514.0	217.5
514.2	219.4
514.4	221.7
514.6	223.8
514.8	225.4
515.0	227.8
515.2	230.6
515.4	233.2
515.6	236.7
515.8	238.2
516.0	239.5
516.2	240.8
516.4	241.3
516.6	243.9
516.8	247.1
517.0	250.7
517.2	252.6
517.4	250.7
517.6	248.8
517.8	250.4
518.0	253.0
518.2	259.0
518.4	263.1
518.6	262.5
518.8	263.5
519.0	265.4
519.2	266.3
519.4	269.2
519.6	271.7
519.8	272.1
520.0	275.3
520.2	278.0
520.4	279.7
520.6	280.6
520.8	283.4
521.0	284.7
521.2	284.8
521.4	284.1
521.6	285.1
521.8	286.4
522.0	290.0
522.2	291.1
522.4	290.8
522.6	291.5
522.8	295.7
523.0	298.7
523.2	299.8
523.4	299.5
523.6	299.6
523.8	301.5
524.0	304.0
524.2	305.2
524.4	305.0
524.6	306.0
524.8	307.8
525.0	310.5
525.2	312.0
525.4	313.5
525.6	314.3
525.8	316.3
526.0	316.3
526.2	316.7
526.4	317.8
526.6	318.7
526.8	319.1
527.0	320.7
527.2	320.9
527.4	321.7
527.6	325.1
527.8	326.2
528.0	328.0
528.2	329.4
528.4	330.7
528.6	330.3
528.8	332.8
529.0	330.7
529.2	331.9
529.4	333.9
529.6	336.3
529.8	336.3
530.0	337.4
530.2	334.7
530.4	334.1
530.6	333.0
530.8	334.5
531.0	334.8
531.2	335.6
531.4	336.9
531.6	338.9
531.8	339.8
532.0	342.9
532.2	343.9
532.4	344.2
532.6	345.4
532.8	346.1
533.0	346.0
533.2	345.8
533.4	344.2
533.6	344.1
533.8	345.1
534.0	347.0
534.2	347.4
534.4	348.5
534.6	348.8
534.8	350.0
535.0	348.8
535.2	348.2
535.4	347.7
535.6	346.7
535.8	346.3
536.0	347.6
536.2	348.5
536.4	348.0
536.6	347.5
536.8	345.4
537.0	345.0
537.2	346.3
537.4	349.9
537.6	352.7
537.8	351.7
538.0	350.9
538.2	349.7
538.4	349.4
538.6	349.2
538.8	350.8
539.0	350.2
539.2	351.5
539.4	351.2
539.6	352.9
539.8	351.1
540.0	349.4
540.2	348.4
540.4	347.5
540.6	346.1
540.8	349.1
541.0	350.3
541.2	352.0
541.4	352.2
541.6	350.5
541.8	348.7
542.0	348.4
542.2	347.8
542.4	348.7
542.6	349.0
542.8	349.3
543.0	348.9
543.2	347.8
543.4	346.4
543.6	346.0
543.8	346.2
544.0	345.3
544.2	346.1
544.4	347.6
544.6	347.5
544.8	347.7
545.0	347.3
545.2	345.8
545.4	346.8
545.6	346.1
545.8	345.2
546.0	343.9
546.2	341.4
546.4	339.6
546.6	340.8
546.8	339.7
547.0	340.6
547.2	342.7
547.4	341.7
547.6	342.3
547.8	342.2
548.0	340.1
548.2	338.2
548.4	337.6
548.6	336.7
548.8	337.3
549.0	336.1
549.2	336.0
549.4	334.6
549.6	334.1
549.8	333.4
550.0	332.6
550.2	331.3
550.4	331.8
550.6	329.8
550.8	328.8
551.0	327.8
551.2	327.7
551.4	326.4
551.6	328.3
551.8	328.7
552.0	328.8
552.2	328.1
552.4	327.8
552.6	326.3
552.8	324.9
553.0	324.4
553.2	322.2
553.4	319.5
553.6	319.3
553.8	321.1
554.0	320.0
554.2	320.8
554.4	319.9
554.6	319.8
554.8	319.1
555.0	320.7
555.2	319.2
555.4	318.5
555.6	317.6
555.8	317.9
556.0	318.8
556.2	318.8
556.4	316.1
556.6	312.4
556.8	309.6
557.0	308.7
557.2	311.6
557.4	312.9
557.6	311.2
557.8	308.7
558.0	307.1
558.2	306.2
558.4	307.5
558.6	307.1
558.8	306.2
559.0	305.3
559.2	304.8
559.4	304.0
559.6	303.9
559.8	303.2
560.0	302.9
560.2	301.4
560.4	296.8
560.6	294.2
560.8	292.8
561.0	292.6
561.2	294.4
561.4	296.5
561.6	294.5
561.8	293.7
562.0	292.9
562.2	289.5
562.4	289.5
562.6	289.4
562.8	288.0
563.0	287.7
563.2	290.8
563.4	288.7
563.6	288.2
563.8	287.6
564.0	286.8
564.2	284.5
564.4	284.5
564.6	281.0
564.8	280.3
565.0	281.4
565.2	281.7
565.4	281.6
565.6	281.3
565.8	279.7
566.0	278.2
566.2	274.1
566.4	272.7
566.6	272.5
566.8	272.5
567.0	272.7
567.2	272.7
567.4	271.0
567.6	271.9
567.8	270.7
568.0	269.0
568.2	267.2
568.4	265.7
568.6	264.2
568.8	264.2
569.0	266.0
569.2	266.0
569.4	263.4
569.6	262.2
569.8	259.8
570.0	258.8
570.2	259.5
570.4	257.8
570.6	255.1
570.8	256.3
571.0	255.6
571.2	255.8
571.4	256.1
571.6	255.2
571.8	253.4
572.0	252.6
572.2	250.1
572.4	248.6
572.6	248.0
572.8	249.7
573.0	248.2
573.2	248.6
573.4	248.7
573.6	248.5
573.8	247.2
574.0	247.4
574.2	245.2
574.4	244.2
574.6	243.4
574.8	242.3
575.0	238.9
575.2	238.1
575.4	237.8
575.6	238.1
575.8	237.3
576.0	236.0
576.2	233.3
576.4	231.5
576.6	232.4
576.8	232.5
577.0	233.9
577.2	233.8
577.4	231.7
577.6	229.2
577.8	227.1
578.0	224.7
578.2	225.5
578.4	224.7
578.6	224.3
578.8	223.7
579.0	221.7
579.2	221.1
579.4	220.7
579.6	219.5
579.8	218.5
580.0	217.0
580.2	216.1
580.4	215.3
580.6	215.5
580.8	215.4
581.0	216.1
581.2	214.9
581.4	213.4
581.6	211.6
581.8	208.6
582.0	207.5
582.2	207.9
582.4	208.1
582.6	208.2
582.8	207.7
583.0	204.3
583.2	201.8
583.4	200.9
583.6	201.3
583.8	200.6
584.0	200.4
584.2	200.0
584.4	198.7
584.6	198.1
584.8	196.4
585.0	195.2
585.2	194.8
585.4	195.0
585.6	195.1
585.8	193.7
586.0	192.0
586.2	191.3
586.4	189.9
586.6	188.4
586.8	187.9
587.0	187.1
587.2	186.8
587.4	186.8
587.6	186.4
587.8	186.1
588.0	185.8
588.2	185.4
588.4	184.7
588.6	183.6
588.8	183.7
589.0	182.7
589.2	183.1
589.4	183.2
589.6	181.6
589.8	179.1
590.0	177.2
590.2	174.6
590.4	173.5
590.6	173.3
590.8	172.6
591.0	172.5
591.2	171.0
591.4	170.8
591.6	170.4
591.8	170.2
592.0	170.2
592.2	171.2
592.4	169.9
592.6	168.3
592.8	166.9
593.0	165.9
593.2	164.4
593.4	164.7
593.6	163.4
593.8	161.7
594.0	160.0
594.2	159.8
594.4	158.1
594.6	157.9
594.8	156.9
595.0	157.6
595.2	157.6
595.4	156.8
595.6	155.0
595.8	155.1
596.0	154.5
596.2	156.3
596.4	156.6
596.6	154.8
596.8	153.2
597.0	152.4
597.2	150.6
597.4	149.8
597.6	149.1
597.8	148.1
598.0	147.6
598.2	147.9
598.4	147.2
598.6	145.9
598.8	144.9
599.0	143.4
599.2	142.9
599.4	143.5
599.6	143.9
599.8	142.9
600.0	140.8
600.2	139.2
600.4	138.7
600.6	139.3
600.8	139.3
601.0	138.0
601.2	136.8
601.4	136.1
601.6	135.1
601.8	134.9
602.0	134.4
602.2	133.9
602.4	135.0
602.6	134.9
602.8	134.3
603.0	134.1
603.2	132.9
603.4	131.2
603.6	130.5
603.8	128.7
604.0	128.6
604.2	128.9
604.4	128.4
604.6	127.9
604.8	127.8
605.0	127.0
605.2	125.3
605.4	122.7
605.6	122.0
605.8	121.3
606.0	122.7
606.2	123.8
606.4	121.7
606.6	119.7
606.8	119.1
607.0	118.0
607.2	117.7
607.4	117.5
607.6	117.1
607.8	116.8
608.0	116.8
608.2	117.0
608.4	115.4
608.6	114.3
608.8	114.6
609.0	113.0
609.2	112.2
609.4	111.5
609.6	110.1
609.8	109.3
610.0	109.4
610.2	108.5
610.4	109.3
610.6	108.7
610.8	108.6
611.0	108.0
611.2	107.5
611.4	107.8
611.6	108.2
611.8	107.7
612.0	107.2
612.2	107.0
612.4	106.3
612.6	106.0
612.8	105.5
613.0	104.8
613.2	103.6
613.4	102.5
613.6	101.1
613.8	100.4
614.0	100.2
614.2	99.62
614.4	99.25
614.6	99.23
614.8	99.53
615.0	99.46
615.2	99.45
615.4	97.65
615.6	96.20
615.8	94.92
616.0	94.04
616.2	93.92
616.4	94.56
616.6	94.35
616.8	94.36
617.0	93.61
617.2	92.10
617.4	90.97
617.6	89.83
617.8	88.88
618.0	89.29
618.2	89.66
618.4	89.55
618.6	89.82
618.8	88.83
619.0	88.33
619.2	88.71
619.4	87.89
619.6	88.03
619.8	86.82
620.0	85.72
620.2	86.13
620.4	85.90
620.6	84.49
620.8	83.82
621.0	81.44
621.2	81.01
621.4	81.59
621.6	82.62
621.8	81.79
622.0	81.83
622.2	81.02
622.4	80.32
622.6	79.89
622.8	80.56
623.0	79.07
623.2	78.95
623.4	78.77
623.6	77.30
623.8	76.59
624.0	75.40
624.2	73.87
624.4	73.69
624.6	74.38
624.8	74.39
625.0	74.32
625.2	72.85
625.4	72.40
625.6	71.19
625.8	71.34
626.0	71.58
626.2	71.99
626.4	72.43
626.6	72.59
626.8	71.27
627.0	71.10
627.2	70.22
627.4	70.11
627.6	70.12
627.8	69.44
628.0	68.79
628.2	68.68
628.4	68.16
628.6	68.20
628.8	67.28
629.0	66.15
629.2	64.67
629.4	64.46
629.6	64.71
629.8	65.45
630.0	64.99
630.2	64.51
630.4	64.69
630.6	64.73
630.8	64.30
631.0	64.18
631.2	63.89
631.4	63.35
631.6	63.72
631.8	62.72
632.0	61.55
632.2	61.05
632.4	59.96
632.6	58.46
632.8	56.79
633.0	55.91
633.2	56.26
633.4	56.24
633.6	57.13
633.8	57.15
634.0	56.91
634.2	55.99
634.4	55.55
634.6	55.09
634.8	55.91
635.0	55.98
635.2	56.29
635.4	54.78
635.6	54.17
635.8	54.23
636.0	54.06
636.2	53.88
636.4	54.32
636.6	53.99
636.8	53.50
637.0	53.35
637.2	52.14
637.4	50.62
637.6	50.73
637.8	50.68
638.0	50.85
638.2	52.06
638.4	51.99
638.6	51.41
638.8	50.99
639.0	50.10
639.2	49.53
639.4	49.80
639.6	48.84
639.8	48.64
640.0	48.48
640.2	47.92
640.4	47.39
640.6	47.41
640.8	45.98
641.0	45.82
641.2	45.82
641.4	45.36
641.6	45.20
641.8	45.80
642.0	45.29
642.2	44.72
642.4	44.05
642.6	43.23
642.8	43.28
643.0	43.94
643.2	43.88
643.4	43.30
643.6	42.42
643.8	41.63
644.0	41.23
644.2	41.29
644.4	41.35
644.6	42.09
644.8	41.96
645.0	41.90
645.2	41.21
645.4	40.87
645.6	40.16
645.8	39.95
646.0	39.37
646.2	38.93
646.4	38.99
646.6	38.99
646.8	38.26
647.0	37.76
647.2	37.76
647.4	37.88
647.6	38.75
647.8	38.69
648.0	38.17
648.2	37.70
648.4	37.15
648.6	36.85
648.8	36.72
649.0	36.23
649.2	36.21
649.4	36.06
649.6	35.43
649.8	35.50
650.0	34.97
650.2	34.52
650.4	34.03
650.6	33.36
650.8	32.88
651.0	33.69
651.2	34.28
651.4	34.89
651.6	34.76
651.8	34.15
652.0	33.11
652.2	32.15
652.4	31.94
652.6	31.47
652.8	31.89
653.0	31.95
653.2	31.57
653.4	31.52
653.6	31.48
653.8	31.01
654.0	31.47
654.2	30.75
654.4	30.01
654.6	29.65
654.8	29.37
655.0	29.04
655.2	29.31
655.4	28.90
655.6	28.98
655.8	28.98
656.0	29.03
656.2	28.88
656.4	28.85
656.6	28.43
656.8	28.68
657.0	28.94
657.2	29.12
657.4	29.20
657.6	29.03
657.8	28.18
658.0	27.33
658.2	26.63
658.4	26.48
658.6	26.58
658.8	27.13
659.0	27.02
659.2	26.65
659.4	26.29
659.6	25.39
659.8	25.39
660.0	25.40
660.2	24.75
660.4	24.40
660.6	24.34
660.8	24.17
661.0	24.80
661.2	25.20
661.4	24.91
661.6	24.82
661.8	24.50
662.0	24.25
662.2	23.85
662.4	24.05
662.6	23.96
662.8	24.03
663.0	24.06
663.2	23.77
663.4	23.04
663.6	23.05
663.8	22.71
664.0	22.65
664.2	22.55
664.4	22.46
664.6	22.14
664.8	22.59
665.0	22.39
665.2	22.12
665.4	21.50
665.6	20.92
665.8	20.28
666.0	20.22
666.2	20.18
666.4	20.69
666.6	21.09
666.8	21.23
667.0	20.64
667.2	19.83
667.4	19.52
667.6	19.45
667.8	19.40
668.0	19.66
668.2	19.93
668.4	19.21
668.6	19.40
668.8	18.95
669.0	18.33
669.2	18.77
669.4	19.32
669.6	18.84
669.8	18.98
670.0	17.98
670.2	17.67
670.4	17.71
670.6	17.96
670.8	17.55
671.0	17.70
671.2	17.16
671.4	17.67
671.6	17.58
671.8	17.71
672.0	17.27
672.2	17.20
672.4	16.62
672.6	16.11
672.8	15.57
673.0	15.43
673.2	15.76
673.4	16.07
673.6	16.20
673.8	15.95
674.0	15.86
674.2	15.68
674.4	15.75
674.6	15.71
674.8	16.14
675.0	16.01
675.2	15.74
675.4	15.21
675.6	15.38
675.8	15.86
676.0	16.18
676.2	16.07
676.4	15.48
676.6	14.50
676.8	14.44
677.0	14.53
677.2	14.40
677.4	14.59
677.6	14.48
677.8	14.03
678.0	14.21
678.2	14.19
678.4	14.41
678.6	14.27
678.8	14.08
679.0	13.20
679.2	13.04
679.4	12.99
679.6	13.14
679.8	13.40
680.0	13.95
680.2	13.27
680.4	13.09
680.6	12.88
680.8	12.76
681.0	12.68
681.2	13.04
681.4	12.84
681.6	12.83
681.8	12.42
682.0	12.13
682.2	11.63
682.4	11.70
682.6	11.80
682.8	12.14
683.0	12.19
683.2	12.13
683.4	12.10
683.6	12.15
683.8	11.79
684.0	11.56
684.2	11.54
684.4	10.90
684.6	10.92
684.8	10.95
685.0	10.62
685.2	10.66
685.4	10.93
685.6	10.56
685.8	10.59
686.0	10.37
686.2	10.17
686.4	10.26
686.6	10.51
686.8	10.78
687.0	10.68
687.2	10.63
687.4	10.16
687.6	9.747
687.8	9.570
688.0	9.732
688.2	9.821
688.4	10.17
688.6	10.11
688.8	9.793
689.0	9.405
689.2	9.062
689.4	9.172
689.6	9.522
689.8	9.983
690.0	9.822
690.2	9.267
690.4	8.817
690.6	8.788
690.8	8.929
691.0	9.589
691.2	9.734
691.4	9.376
691.6	9.198
691.8	8.862
692.0	8.538
692.2	8.541
692.4	8.435
692.6	8.427
692.8	8.460
693.0	8.540
693.2	8.475
693.4	8.472
693.6	8.597
693.8	9.010
694.0	8.892
694.2	8.865
694.4	8.531
694.6	8.388
694.8	8.364
695.0	8.412
695.2	8.065
695.4	8.027
695.6	7.969
695.8	8.007
696.0	8.011
696.2	7.895
696.4	7.780
696.6	7.771
696.8	8.070
697.0	7.746
697.2	7.711
697.4	7.582
697.6	7.658
697.8	7.612
698.0	7.948
698.2	7.746
698.4	7.500
698.6	7.266
698.8	7.336
699.0	7.197
699.2	7.407
699.4	7.708
699.6	7.340
699.8	7.319
700.0	7.240
700.2	6.918
700.4	6.691
700.6	6.736
700.8	6.832
701.0	6.925
701.2	6.870
701.4	6.768
701.6	6.510
701.8	6.631
702.0	6.898
702.2	6.855
702.4	6.731
702.6	6.497
702.8	6.102
703.0	6.143
703.2	6.169
703.4	6.201
703.6	6.309
703.8	6.501
704.0	6.577
704.2	6.744
704.4	6.534
704.6	6.494
704.8	6.096
705.0	6.046
705.2	6.127
705.4	6.276
705.6	6.023
705.8	6.031
706.0	5.743
706.2	5.701
706.4	5.681
706.6	5.728
706.8	5.437
707.0	5.413
707.2	5.628
707.4	5.782
707.6	5.882
707.8	5.746
708.0	5.519
708.2	5.381
708.4	5.462
708.6	5.474
708.8	5.543
709.0	5.403
709.2	5.278
709.4	5.144
709.6	5.303
709.8	5.400
710.0	5.233
710.2	5.121
710.4	4.925
710.6	4.707
710.8	4.659
711.0	5.238
711.2	5.457
711.4	5.835
711.6	5.817
711.8	5.229
712.0	4.629
712.2	4.528
712.4	4.691
712.6	5.047
712.8	5.027
713.0	4.716
713.2	4.793
713.4	4.495
713.6	4.727
713.8	4.632
714.0	4.569
714.2	4.586
714.4	4.805
714.6	4.692
714.8	4.965
715.0	4.565
715.2	4.580
715.4	4.478
715.6	4.428
715.8	4.270
716.0	4.303
716.2	4.306
716.4	4.454
716.6	4.471
716.8	4.587
717.0	4.488
717.2	4.205
717.4	3.989
717.6	3.870
717.8	3.914
718.0	3.940
718.2	3.888
718.4	3.826
718.6	3.582
718.8	3.730
719.0	3.974
719.2	4.184
719.4	4.172
719.6	4.203
719.8	4.102
720.0	3.908
720.2	3.785
720.4	3.766
720.6	3.674
720.8	3.634
721.0	3.788
721.2	3.891
721.4	3.892
721.6	3.836
721.8	3.792
722.0	3.605
722.2	3.494
722.4	3.542
722.6	3.423
722.8	3.362
723.0	3.491
723.2	3.626
723.4	3.623
723.6	3.692
723.8	3.537
724.0	3.273
724.2	3.236
724.4	3.303
724.6	3.249
724.8	3.330
725.0	3.112
725.2	2.985
725.4	3.037
725.6	3.233
725.8	3.150
726.0	3.148
726.2	2.963
726.4	2.884
726.6	2.819
726.8	3.063
727.0	3.075
727.2	3.135
727.4	3.248
727.6	3.105
727.8	2.844
728.0	2.859
728.2	2.832
728.4	2.942
728.6	3.050
728.8	3.024
729.0	2.883
729.2	2.770
729.4	2.723
729.6	2.637
729.8	2.637
730.0	2.780
730.2	2.776
730.4	2.849
730.6	2.843
730.8	2.729
731.0	2.681
731.2	2.517
731.4	2.515
731.6	2.715
731.8	2.521
732.0	2.560
732.2	2.470
732.4	2.507
732.6	2.690
732.8	2.685
733.0	2.418
733.2	2.247
733.4	2.221
733.6	2.350
733.8	2.319
734.0	2.246
734.2	2.431
734.4	2.425
734.6	2.577
734.8	2.327
735.0	2.080
735.2	2.034
735.4	2.078
735.6	2.235
735.8	2.319
736.0	2.081
736.2	1.982
736.4	2.063
736.6	2.019
736.8	2.204
737.0	2.186
737.2	2.061
737.4	2.101
737.6	2.218
737.8	2.159
738.0	2.162
738.2	2.192
738.4	2.076
738.6	2.051
738.8	2.014
739.0	1.963
739.2	1.931
739.4	2.013
739.6	2.017
739.8	2.048
740.0	2.077
740.2	2.094
740.4	2.161
740.6	2.131
740.8	1.986
741.0	1.868
741.2	1.943
741.4	2.127
741.6	2.220
741.8	2.253
742.0	2.023
742.2	1.852
742.4	1.851
742.6	1.895
742.8	1.861
743.0	2.029
743.2	1.971
743.4	2.009
743.6	1.930
743.8	1.758
744.0	1.793
744.2	1.873
744.4	1.783
744.6	1.730
744.8	1.815
745.0	1.700
745.2	1.647
745.4	1.650
745.6	1.620
745.8	1.629
746.0	1.814
746.2	1.749
746.4	1.790
746.6	1.689
746.8	1.695
747.0	1.663
747.2	1.513
747.4	1.431
747.6	1.420
747.8	1.350
748.0	1.465
748.2	1.565
748.4	1.544
748.6	1.591
748.8	1.500
749.0	1.397
749.2	1.370
749.4	1.371
749.6	1.338
749.8	1.356
750.0	1.404
750.2	1.482
750.4	1.410
750.6	1.357
750.8	1.330
751.0	1.237
751.2	1.233
751.4	1.267
751.6	1.133
751.8	1.132
752.0	1.143
752.2	1.272
752.4	1.313
752.6	1.400
752.8	1.395
753.0	1.408
753.2	1.318
753.4	1.387
753.6	1.423
753.8	1.455
754.0	1.406
754.2	1.355
754.4	1.282
754.6	1.211
754.8	1.232
755.0	1.271
755.2	1.309
755.4	1.283
755.6	1.385
755.8	1.311
756.0	1.214
756.2	1.258
756.4	1.294
756.6	1.221
756.8	1.250
757.0	1.286
757.2	1.201
757.4	1.236
757.6	1.302
757.8	1.361
758.0	1.451
758.2	1.586
758.4	1.543
758.6	1.471
758.8	1.295
759.0	1.234
759.2	1.124
759.4	1.108
759.6	1.161
759.8	1.181
760.0	1.141
760.2	1.132
760.4	1.199
760.6	1.340
760.8	1.317
761.0	1.260
761.2	1.128
761.4	0.973
761.6	0.993
761.8	1.028
762.0	1.056
762.2	1.128
762.4	1.184
762.6	1.082
762.8	1.089
763.0	1.028
763.2	1.082
763.4	1.154
763.6	1.278
763.8	1.182
764.0	1.177
764.2	0.980
764.4	0.936
764.6	1.006
764.8	1.126
765.0	1.233
765.2	1.253
765.4	1.058
765.6	0.914
765.8	0.902
766.0	0.943
766.2	0.941
766.4	0.995
766.6	0.925
766.8	0.891
767.0	0.992
767.2	1.037
767.4	0.948
767.6	0.952
767.8	0.863
768.0	0.867
768.2	0.883
768.4	0.899
768.6	0.939
768.8	1.064
769.0	1.054
769.2	1.195
769.4	1.151
769.6	1.192
769.8	1.007
770.0	0.959
770.2	0.719
770.4	0.827
770.6	0.887
770.8	1.228
771.0	1.272
771.2	1.277
771.4	1.072
771.6	1.008
771.8	0.865
772.0	0.941
772.2	0.911
772.4	0.841
772.6	0.802
772.8	0.879
773.0	0.845
773.2	0.968
773.4	0.944
773.6	0.964
773.8	0.964
774.0	0.964
774.2	0.874
774.4	0.942
774.6	0.893
774.8	0.885
775.0	0.932
775.2	0.909
775.4	0.870
775.6	0.962
775.8	1.068
776.0	0.978
776.2	0.866
776.4	0.767
776.6	0.777
776.8	0.859
777.0	0.986
777.2	0.996
777.4	0.948
777.6	0.914
777.8	0.928
778.0	0.847
778.2	0.821
778.4	0.847
778.6	0.907
778.8	0.892
779.0	0.883
779.2	0.715
779.4	0.749
779.6	0.817
779.8	0.810
780.0	0.793
780.2	1.001
780.4	0.985
780.6	1.228
780.8	1.362
781.0	1.166
781.2	0.912
781.4	0.916
781.6	0.775
781.8	0.920
782.0	1.022
782.2	0.944
782.4	0.937
782.6	0.822
782.8	0.732
783.0	0.708
783.2	0.700
783.4	0.805
783.6	1.154
783.8	1.218
784.0	1.416
784.2	1.242
784.4	1.150
784.6	0.984
784.8	1.101
785.0	1.196
785.2	1.410
785.4	1.271
785.6	1.350
785.8	1.336
786.0	1.428
786.2	1.643
786.4	1.727
786.6	1.575
786.8	1.617
787.0	1.722
787.2	1.613
787.4	1.633
787.6	1.549
787.8	1.435
788.0	1.577
788.2	1.658
788.4	1.638
788.6	1.701
788.8	1.708
789.0	1.704
789.2	2.011
789.4	1.978
789.6	2.102
789.8	2.050
790.0	2.026
790.2	2.062
790.4	2.345
790.6	2.192
790.8	2.348
791.0	2.121
791.2	2.153
791.4	2.345
791.6	2.602
791.8	2.678
792.0	2.748
792.2	2.646
792.4	2.576
792.6	2.631
792.8	2.748
793.0	2.695
793.2	2.976
793.4	3.113
793.6	3.104
793.8	3.028
794.0	2.978
794.2	2.709
794.4	2.926
794.6	3.084
794.8	3.406
795.0	3.549
795.2	3.644
795.4	3.646
795.6	3.718
795.8	3.772
796.0	4.014
796.2	3.950
796.4	3.795
796.6	3.790
796.8	3.877
797.0	3.723
797.2	3.969
797.4	4.094
797.6	4.345
797.8	4.357
798.0	4.293
798.2	4.186
798.4	4.278
798.6	4.363
798.8	4.517
799.0	4.458
799.2	4.469
799.4	4.699
799.6	4.868
799.8	4.844
800.0	4.490

