Sample:	'20211010A(EM)
File name:	G-NI 5.FDS
Run date:	'16:46:12, 06/19/2023
Operator:	Administrator
Comment:	'

Instrument
Model:	F-4700 FL Spectrophotometer
Serial number:	2019-001
ROM Version:	5J24010 00

Instrument parameters
Measurement type:	Wavelength scan
Scan mode:	Emission
Data mode:	Fluorescence
EX WL:	400.0 nm
EM  Start WL:	420.0 nm
EM  End WL:	800.0 nm
Scan speed:	1200 nm/min
Delay:	0.0 s
EX Slit:	10.0 nm
EM Slit:	10.0 nm
PMT Voltage:	500 V
Response:	0.002 s
Corrected spectra:	Off
Shutter control:	On

Processing performed
Savitsky-Golay smoothed
Smoothing order:	3
Number of points:	7
Number of times:	1

Peak integration
Integration method:	Rectangular
Sensitivity:	1
Threshold:	1.000

Peaks
No.	Start(nm)	Apex(nm)	End(nm)	Height(Data)	Valley(nm)	Valley(Data)
1	420.0	534.6	535.4	453.2	535.4	449.2
2	535.4	538.0	539.4	459.1	539.4	453.2
3	539.4	540.4	541.0	458.8	541.0	450.8
4	541.0	542.0	544.0	455.1	544.0	449.1
5	544.0	544.6	588.0	451.9	588.0	244.1
6	588.0	588.6	669.4	249.4	669.4	26.97
7	669.4	670.0	680.8	28.28	680.8	18.73
8	680.8	681.4	682.2	19.84	682.2	17.32
9	682.2	683.0	694.0	18.44	694.0	11.93
10	694.0	694.8	781.0	13.32	781.0	0.918

Data points
nm	Data
420.0	0.632
420.2	0.443
420.4	0.429
420.6	0.519
420.8	0.629
421.0	0.641
421.2	0.734
421.4	0.632
421.6	0.505
421.8	0.562
422.0	0.645
422.2	0.677
422.4	0.648
422.6	0.543
422.8	0.420
423.0	0.516
423.2	0.628
423.4	0.720
423.6	0.757
423.8	0.660
424.0	0.607
424.2	0.624
424.4	0.636
424.6	0.639
424.8	0.667
425.0	0.535
425.2	0.580
425.4	0.712
425.6	0.690
425.8	0.752
426.0	0.724
426.2	0.654
426.4	0.649
426.6	0.739
426.8	0.588
427.0	0.541
427.2	0.468
427.4	0.466
427.6	0.463
427.8	0.528
428.0	0.529
428.2	0.503
428.4	0.583
428.6	0.631
428.8	0.721
429.0	0.715
429.2	0.745
429.4	0.717
429.6	0.666
429.8	0.637
430.0	0.664
430.2	0.672
430.4	0.695
430.6	0.560
430.8	0.503
431.0	0.561
431.2	0.497
431.4	0.614
431.6	0.700
431.8	0.641
432.0	0.664
432.2	0.754
432.4	0.684
432.6	0.740
432.8	0.799
433.0	0.749
433.2	0.666
433.4	0.708
433.6	0.679
433.8	0.625
434.0	0.684
434.2	0.629
434.4	0.597
434.6	0.661
434.8	0.618
435.0	0.586
435.2	0.675
435.4	0.626
435.6	0.581
435.8	0.536
436.0	0.445
436.2	0.506
436.4	0.707
436.6	0.784
436.8	0.838
437.0	0.738
437.2	0.534
437.4	0.492
437.6	0.517
437.8	0.498
438.0	0.523
438.2	0.601
438.4	0.547
438.6	0.606
438.8	0.763
439.0	0.817
439.2	0.787
439.4	0.739
439.6	0.568
439.8	0.449
440.0	0.539
440.2	0.641
440.4	0.664
440.6	0.648
440.8	0.656
441.0	0.698
441.2	0.723
441.4	0.762
441.6	0.724
441.8	0.705
442.0	0.716
442.2	0.744
442.4	0.679
442.6	0.650
442.8	0.579
443.0	0.599
443.2	0.688
443.4	0.734
443.6	0.728
443.8	0.728
444.0	0.570
444.2	0.456
444.4	0.527
444.6	0.689
444.8	0.751
445.0	0.864
445.2	0.715
445.4	0.629
445.6	0.718
445.8	0.767
446.0	0.676
446.2	0.651
446.4	0.527
446.6	0.531
446.8	0.616
447.0	0.631
447.2	0.707
447.4	0.672
447.6	0.796
447.8	0.800
448.0	0.697
448.2	0.539
448.4	0.479
448.6	0.457
448.8	0.639
449.0	0.793
449.2	0.915
449.4	0.855
449.6	0.667
449.8	0.565
450.0	0.589
450.2	0.656
450.4	0.773
450.6	0.767
450.8	0.767
451.0	0.763
451.2	0.813
451.4	0.728
451.6	0.773
451.8	0.806
452.0	0.878
452.2	0.890
452.4	0.721
452.6	0.545
452.8	0.554
453.0	0.582
453.2	0.574
453.4	0.702
453.6	0.760
453.8	0.753
454.0	0.723
454.2	0.696
454.4	0.601
454.6	0.567
454.8	0.688
455.0	0.736
455.2	0.729
455.4	0.751
455.6	0.711
455.8	0.642
456.0	0.837
456.2	0.906
456.4	0.848
456.6	0.739
456.8	0.625
457.0	0.539
457.2	0.584
457.4	0.566
457.6	0.577
457.8	0.571
458.0	0.589
458.2	0.609
458.4	0.593
458.6	0.604
458.8	0.578
459.0	0.685
459.2	0.646
459.4	0.744
459.6	0.809
459.8	0.916
460.0	0.900
460.2	0.971
460.4	0.779
460.6	0.678
460.8	0.589
461.0	0.649
461.2	0.666
461.4	0.811
461.6	0.785
461.8	0.820
462.0	0.887
462.2	0.910
462.4	0.851
462.6	0.942
462.8	0.852
463.0	0.792
463.2	0.776
463.4	0.803
463.6	0.725
463.8	0.934
464.0	0.945
464.2	0.873
464.4	0.837
464.6	0.882
464.8	0.793
465.0	0.830
465.2	0.767
465.4	0.880
465.6	0.919
465.8	0.946
466.0	1.057
466.2	1.110
466.4	1.068
466.6	1.186
466.8	1.209
467.0	1.167
467.2	1.199
467.4	1.280
467.6	1.349
467.8	1.316
468.0	1.348
468.2	1.213
468.4	1.217
468.6	1.256
468.8	1.325
469.0	1.194
469.2	1.280
469.4	1.301
469.6	1.430
469.8	1.400
470.0	1.360
470.2	1.276
470.4	1.222
470.6	1.351
470.8	1.467
471.0	1.521
471.2	1.679
471.4	1.755
471.6	1.717
471.8	1.829
472.0	1.783
472.2	1.766
472.4	1.744
472.6	1.790
472.8	1.905
473.0	2.058
473.2	1.963
473.4	2.075
473.6	2.094
473.8	2.353
474.0	2.576
474.2	2.761
474.4	2.755
474.6	2.736
474.8	2.632
475.0	2.763
475.2	2.911
475.4	2.876
475.6	3.017
475.8	2.979
476.0	2.954
476.2	3.180
476.4	3.328
476.6	3.309
476.8	3.515
477.0	3.485
477.2	3.538
477.4	3.656
477.6	3.698
477.8	3.872
478.0	4.179
478.2	4.329
478.4	4.765
478.6	4.689
478.8	4.898
479.0	4.726
479.2	4.827
479.4	5.006
479.6	5.429
479.8	5.531
480.0	5.942
480.2	5.601
480.4	6.236
480.6	6.873
480.8	7.341
481.0	7.538
481.2	7.728
481.4	7.471
481.6	7.937
481.8	8.316
482.0	8.594
482.2	8.898
482.4	9.304
482.6	9.075
482.8	9.279
483.0	9.593
483.2	10.06
483.4	10.78
483.6	11.10
483.8	10.77
484.0	11.31
484.2	11.96
484.4	12.43
484.6	12.72
484.8	12.78
485.0	12.92
485.2	13.45
485.4	14.29
485.6	15.29
485.8	15.61
486.0	16.45
486.2	16.92
486.4	16.76
486.6	17.22
486.8	18.07
487.0	18.37
487.2	19.64
487.4	20.44
487.6	20.64
487.8	21.23
488.0	21.84
488.2	22.55
488.4	23.33
488.6	24.13
488.8	24.68
489.0	25.63
489.2	26.07
489.4	26.65
489.6	26.61
489.8	27.13
490.0	28.51
490.2	30.31
490.4	31.72
490.6	32.38
490.8	32.51
491.0	33.08
491.2	33.91
491.4	34.98
491.6	36.30
491.8	37.50
492.0	38.74
492.2	40.33
492.4	42.02
492.6	43.58
492.8	44.50
493.0	45.43
493.2	45.78
493.4	46.45
493.6	47.95
493.8	49.43
494.0	51.04
494.2	52.62
494.4	54.17
494.6	55.55
494.8	56.83
495.0	58.40
495.2	59.62
495.4	61.03
495.6	61.72
495.8	64.11
496.0	65.61
496.2	67.42
496.4	69.63
496.6	71.36
496.8	71.45
497.0	73.93
497.2	74.60
497.4	76.90
497.6	79.35
497.8	81.12
498.0	82.33
498.2	84.20
498.4	84.55
498.6	86.37
498.8	88.08
499.0	90.07
499.2	92.31
499.4	95.96
499.6	98.66
499.8	99.95
500.0	102.2
500.2	104.2
500.4	106.9
500.6	110.4
500.8	113.0
501.0	113.6
501.2	114.8
501.4	115.6
501.6	117.6
501.8	121.2
502.0	124.9
502.2	128.1
502.4	130.0
502.6	132.0
502.8	133.5
503.0	136.1
503.2	137.9
503.4	139.5
503.6	141.7
503.8	144.6
504.0	147.5
504.2	151.2
504.4	154.2
504.6	157.3
504.8	160.1
505.0	162.1
505.2	163.1
505.4	166.2
505.6	167.6
505.8	170.2
506.0	172.7
506.2	175.9
506.4	179.3
506.6	183.2
506.8	185.3
507.0	188.8
507.2	193.4
507.4	197.6
507.6	201.9
507.8	204.5
508.0	206.6
508.2	208.4
508.4	208.7
508.6	209.1
508.8	210.0
509.0	213.8
509.2	219.8
509.4	223.8
509.6	224.9
509.8	227.6
510.0	231.3
510.2	233.4
510.4	237.4
510.6	240.4
510.8	242.3
511.0	245.8
511.2	249.3
511.4	249.3
511.6	251.0
511.8	253.7
512.0	255.2
512.2	258.0
512.4	261.2
512.6	265.4
512.8	269.8
513.0	272.5
513.2	274.2
513.4	275.1
513.6	276.6
513.8	278.6
514.0	282.1
514.2	287.0
514.4	290.9
514.6	294.7
514.8	298.0
515.0	301.3
515.2	304.0
515.4	306.0
515.6	306.8
515.8	309.3
516.0	310.8
516.2	314.7
516.4	317.6
516.6	319.5
516.8	321.5
517.0	323.8
517.2	325.2
517.4	327.2
517.6	329.4
517.8	334.4
518.0	337.5
518.2	339.8
518.4	340.8
518.6	342.8
518.8	344.0
519.0	346.4
519.2	348.2
519.4	350.2
519.6	351.8
519.8	354.8
520.0	358.5
520.2	361.0
520.4	363.7
520.6	366.0
520.8	367.3
521.0	369.7
521.2	373.7
521.4	377.3
521.6	377.2
521.8	378.7
522.0	379.1
522.2	383.4
522.4	387.1
522.6	390.9
522.8	389.2
523.0	387.5
523.2	387.1
523.4	388.3
523.6	390.1
523.8	393.3
524.0	394.5
524.2	396.9
524.4	400.0
524.6	402.4
524.8	404.2
525.0	405.4
525.2	404.9
525.4	408.2
525.6	410.7
525.8	414.4
526.0	415.8
526.2	416.8
526.4	414.1
526.6	415.9
526.8	416.0
527.0	417.8
527.2	420.6
527.4	421.6
527.6	419.3
527.8	423.7
528.0	422.8
528.2	425.2
528.4	427.8
528.6	427.4
528.8	425.3
529.0	428.1
529.2	427.4
529.4	430.4
529.6	433.1
529.8	433.1
530.0	432.0
530.2	432.8
530.4	432.2
530.6	433.2
530.8	434.9
531.0	435.2
531.2	437.8
531.4	442.9
531.6	445.3
531.8	445.0
532.0	443.9
532.2	443.3
532.4	444.1
532.6	447.3
532.8	449.9
533.0	451.0
533.2	450.6
533.4	448.9
533.6	447.0
533.8	447.4
534.0	449.3
534.2	451.7
534.4	453.1
534.6	453.2
534.8	453.0
535.0	450.7
535.2	449.7
535.4	449.2
535.6	450.3
535.8	451.8
536.0	454.9
536.2	452.7
536.4	452.9
536.6	451.0
536.8	452.7
537.0	453.9
537.2	456.6
537.4	455.2
537.6	456.1
537.8	456.6
538.0	459.1
538.2	457.7
538.4	457.3
538.6	455.5
538.8	453.6
539.0	453.7
539.2	455.9
539.4	453.2
539.6	454.4
539.8	456.2
540.0	458.0
540.2	458.7
540.4	458.8
540.6	454.0
540.8	452.5
541.0	450.8
541.2	452.9
541.4	453.4
541.6	453.3
541.8	453.7
542.0	455.1
542.2	452.6
542.4	453.2
542.6	451.6
542.8	449.5
543.0	450.1
543.2	449.9
543.4	449.7
543.6	450.6
543.8	450.8
544.0	449.1
544.2	449.2
544.4	451.4
544.6	451.9
544.8	450.6
545.0	448.7
545.2	446.0
545.4	446.3
545.6	449.4
545.8	449.5
546.0	449.1
546.2	446.9
546.4	444.3
546.6	447.0
546.8	445.5
547.0	442.8
547.2	440.9
547.4	440.1
547.6	439.3
547.8	442.4
548.0	442.1
548.2	440.3
548.4	438.1
548.6	438.5
548.8	437.1
549.0	437.9
549.2	440.5
549.4	439.2
549.6	436.5
549.8	433.8
550.0	432.2
550.2	433.2
550.4	433.7
550.6	434.0
550.8	432.3
551.0	430.3
551.2	430.2
551.4	431.2
551.6	428.8
551.8	428.7
552.0	426.0
552.2	425.4
552.4	425.3
552.6	428.4
552.8	425.8
553.0	423.9
553.2	422.4
553.4	422.8
553.6	422.8
553.8	424.5
554.0	420.4
554.2	417.2
554.4	416.3
554.6	417.1
554.8	416.8
555.0	417.4
555.2	415.5
555.4	415.1
555.6	414.6
555.8	415.2
556.0	413.0
556.2	413.3
556.4	411.9
556.6	412.0
556.8	410.1
557.0	410.6
557.2	408.3
557.4	408.1
557.6	404.6
557.8	402.6
558.0	403.1
558.2	406.6
558.4	406.8
558.6	407.2
558.8	403.9
559.0	398.6
559.2	396.1
559.4	394.2
559.6	391.8
559.8	392.8
560.0	395.1
560.2	393.2
560.4	393.1
560.6	392.4
560.8	391.4
561.0	393.5
561.2	393.2
561.4	389.1
561.6	385.6
561.8	381.9
562.0	380.7
562.2	382.3
562.4	380.5
562.6	380.5
562.8	380.1
563.0	379.5
563.2	380.3
563.4	378.7
563.6	375.0
563.8	373.0
564.0	372.1
564.2	373.4
564.4	372.8
564.6	374.1
564.8	372.6
565.0	371.0
565.2	370.6
565.4	370.3
565.6	366.6
565.8	366.1
566.0	363.9
566.2	362.5
566.4	361.8
566.6	361.2
566.8	358.8
567.0	356.3
567.2	356.0
567.4	355.9
567.6	357.8
567.8	357.8
568.0	356.3
568.2	351.9
568.4	349.8
568.6	347.5
568.8	348.9
569.0	347.5
569.2	348.1
569.4	345.4
569.6	344.5
569.8	342.9
570.0	342.8
570.2	340.1
570.4	338.8
570.6	337.2
570.8	336.6
571.0	335.4
571.2	336.6
571.4	336.8
571.6	336.5
571.8	335.5
572.0	334.4
572.2	331.6
572.4	330.4
572.6	329.3
572.8	329.1
573.0	328.2
573.2	327.2
573.4	325.5
573.6	324.4
573.8	321.8
574.0	321.5
574.2	318.8
574.4	315.4
574.6	314.5
574.8	314.5
575.0	312.3
575.2	312.2
575.4	312.0
575.6	312.8
575.8	314.5
576.0	312.3
576.2	308.6
576.4	305.6
576.6	304.2
576.8	303.0
577.0	303.2
577.2	302.2
577.4	302.5
577.6	303.8
577.8	303.1
578.0	301.2
578.2	298.8
578.4	295.6
578.6	294.0
578.8	294.6
579.0	292.9
579.2	293.1
579.4	292.2
579.6	289.6
579.8	289.0
580.0	286.1
580.2	283.4
580.4	282.9
580.6	281.6
580.8	281.1
581.0	282.8
581.2	281.9
581.4	282.1
581.6	281.3
581.8	280.4
582.0	279.5
582.2	278.3
582.4	276.7
582.6	274.8
582.8	272.5
583.0	271.3
583.2	271.0
583.4	270.1
583.6	269.1
583.8	268.3
584.0	266.1
584.2	264.1
584.4	262.6
584.6	261.4
584.8	260.6
585.0	260.9
585.2	259.1
585.4	259.6
585.6	259.5
585.8	258.9
586.0	257.5
586.2	256.8
586.4	254.3
586.6	255.4
586.8	256.4
587.0	254.7
587.2	251.9
587.4	249.0
587.6	244.6
587.8	244.2
588.0	244.1
588.2	244.3
588.4	247.4
588.6	249.4
588.8	248.1
589.0	245.4
589.2	241.9
589.4	240.8
589.6	240.0
589.8	240.2
590.0	238.4
590.2	235.0
590.4	233.2
590.6	234.0
590.8	232.4
591.0	233.6
591.2	230.9
591.4	228.1
591.6	225.9
591.8	225.8
592.0	225.6
592.2	227.2
592.4	225.5
592.6	226.2
592.8	225.6
593.0	225.7
593.2	223.7
593.4	221.9
593.6	218.6
593.8	218.8
594.0	217.7
594.2	216.1
594.4	214.7
594.6	214.8
594.8	214.2
595.0	216.4
595.2	215.3
595.4	213.3
595.6	211.3
595.8	209.3
596.0	206.5
596.2	207.1
596.4	205.2
596.6	204.5
596.8	204.1
597.0	202.2
597.2	200.4
597.4	200.5
597.6	201.0
597.8	202.2
598.0	201.7
598.2	199.5
598.4	197.0
598.6	194.7
598.8	193.8
599.0	193.5
599.2	191.8
599.4	191.8
599.6	191.1
599.8	191.1
600.0	190.4
600.2	188.8
600.4	188.1
600.6	188.0
600.8	187.3
601.0	187.5
601.2	186.1
601.4	184.1
601.6	183.3
601.8	181.1
602.0	179.9
602.2	180.0
602.4	179.2
602.6	179.7
602.8	181.0
603.0	179.5
603.2	178.5
603.4	177.1
603.6	175.1
603.8	175.5
604.0	177.3
604.2	176.5
604.4	175.4
604.6	173.6
604.8	171.8
605.0	172.2
605.2	172.3
605.4	171.4
605.6	170.5
605.8	169.1
606.0	167.2
606.2	165.6
606.4	163.3
606.6	161.6
606.8	161.3
607.0	161.4
607.2	162.1
607.4	162.5
607.6	162.3
607.8	161.4
608.0	160.2
608.2	159.1
608.4	158.2
608.6	155.6
608.8	154.3
609.0	153.2
609.2	153.9
609.4	154.8
609.6	154.4
609.8	153.1
610.0	151.2
610.2	149.9
610.4	149.2
610.6	149.4
610.8	148.6
611.0	147.8
611.2	145.4
611.4	145.4
611.6	143.5
611.8	144.1
612.0	144.1
612.2	142.8
612.4	143.3
612.6	143.2
612.8	140.9
613.0	139.4
613.2	139.2
613.4	138.7
613.6	139.5
613.8	139.3
614.0	138.6
614.2	137.5
614.4	137.6
614.6	136.7
614.8	135.0
615.0	134.5
615.2	133.9
615.4	132.0
615.6	131.5
615.8	131.2
616.0	130.4
616.2	129.7
616.4	128.8
616.6	126.7
616.8	127.3
617.0	128.0
617.2	127.5
617.4	126.1
617.6	124.8
617.8	122.9
618.0	123.2
618.2	122.5
618.4	122.3
618.6	120.5
618.8	120.8
619.0	120.9
619.2	121.7
619.4	121.3
619.6	121.5
619.8	119.7
620.0	118.9
620.2	117.9
620.4	117.1
620.6	115.4
620.8	115.6
621.0	115.3
621.2	114.6
621.4	114.4
621.6	113.2
621.8	111.6
622.0	111.6
622.2	111.1
622.4	111.1
622.6	110.4
622.8	109.4
623.0	108.4
623.2	107.2
623.4	106.7
623.6	106.8
623.8	106.8
624.0	106.6
624.2	106.2
624.4	105.1
624.6	104.1
624.8	102.5
625.0	101.4
625.2	100.3
625.4	100.4
625.6	100.5
625.8	101.1
626.0	100.7
626.2	100.3
626.4	99.82
626.6	98.69
626.8	96.86
627.0	96.56
627.2	97.01
627.4	97.06
627.6	97.58
627.8	97.52
628.0	97.04
628.2	96.94
628.4	96.81
628.6	95.61
628.8	93.96
629.0	93.37
629.2	92.29
629.4	91.98
629.6	91.33
629.8	90.61
630.0	89.53
630.2	89.77
630.4	87.63
630.6	86.53
630.8	85.43
631.0	85.07
631.2	85.61
631.4	86.60
631.6	86.22
631.8	85.99
632.0	85.73
632.2	85.51
632.4	84.56
632.6	83.86
632.8	83.92
633.0	84.75
633.2	84.91
633.4	83.19
633.6	80.17
633.8	79.09
634.0	78.77
634.2	79.24
634.4	79.51
634.6	78.60
634.8	77.44
635.0	78.17
635.2	78.39
635.4	78.73
635.6	78.01
635.8	77.18
636.0	75.40
636.2	75.31
636.4	75.42
636.6	75.71
636.8	75.36
637.0	75.35
637.2	74.01
637.4	73.47
637.6	73.21
637.8	72.99
638.0	73.15
638.2	72.84
638.4	72.04
638.6	70.71
638.8	70.15
639.0	69.30
639.2	68.73
639.4	68.09
639.6	67.32
639.8	66.93
640.0	67.31
640.2	67.29
640.4	67.69
640.6	67.21
640.8	65.86
641.0	65.57
641.2	65.91
641.4	65.79
641.6	65.54
641.8	64.55
642.0	63.85
642.2	64.03
642.4	64.38
642.6	64.00
642.8	62.67
643.0	61.60
643.2	60.74
643.4	60.55
643.6	60.49
643.8	60.17
644.0	59.28
644.2	59.00
644.4	58.75
644.6	58.74
644.8	58.37
645.0	57.58
645.2	57.20
645.4	57.18
645.6	56.97
645.8	57.62
646.0	57.39
646.2	57.32
646.4	57.03
646.6	56.28
646.8	55.51
647.0	55.61
647.2	54.90
647.4	54.48
647.6	54.22
647.8	54.34
648.0	54.17
648.2	53.88
648.4	53.57
648.6	52.68
648.8	52.44
649.0	53.05
649.2	52.94
649.4	51.87
649.6	51.24
649.8	50.65
650.0	49.63
650.2	49.61
650.4	49.68
650.6	49.25
650.8	48.84
651.0	49.01
651.2	48.03
651.4	47.75
651.6	47.17
651.8	47.34
652.0	46.92
652.2	47.60
652.4	47.51
652.6	47.78
652.8	47.40
653.0	46.42
653.2	45.10
653.4	44.97
653.6	44.49
653.8	45.46
654.0	46.43
654.2	45.42
654.4	45.17
654.6	44.78
654.8	44.05
655.0	43.43
655.2	42.90
655.4	41.68
655.6	42.17
655.8	42.32
656.0	42.47
656.2	41.73
656.4	41.18
656.6	40.90
656.8	41.03
657.0	41.11
657.2	41.48
657.4	40.62
657.6	40.17
657.8	39.78
658.0	39.25
658.2	39.47
658.4	39.35
658.6	38.20
658.8	38.05
659.0	38.08
659.2	37.72
659.4	37.42
659.6	36.72
659.8	36.65
660.0	37.06
660.2	37.45
660.4	36.91
660.6	36.03
660.8	34.99
661.0	35.75
661.2	36.30
661.4	36.40
661.6	35.79
661.8	35.07
662.0	34.40
662.2	34.21
662.4	34.16
662.6	33.55
662.8	33.31
663.0	33.35
663.2	33.52
663.4	33.79
663.6	34.24
663.8	33.77
664.0	33.55
664.2	32.65
664.4	32.09
664.6	32.36
664.8	32.43
665.0	32.12
665.2	31.60
665.4	31.08
665.6	31.50
665.8	31.85
666.0	31.53
666.2	30.62
666.4	30.07
666.6	30.08
666.8	30.37
667.0	29.65
667.2	29.41
667.4	28.95
667.6	29.18
667.8	29.63
668.0	30.01
668.2	29.24
668.4	29.23
668.6	28.65
668.8	28.25
669.0	27.90
669.2	27.15
669.4	26.97
669.6	27.51
669.8	27.73
670.0	28.28
670.2	27.95
670.4	27.32
670.6	27.38
670.8	27.34
671.0	26.86
671.2	26.93
671.4	26.53
671.6	26.45
671.8	26.24
672.0	25.93
672.2	25.57
672.4	24.92
672.6	24.93
672.8	25.05
673.0	24.71
673.2	24.96
673.4	24.73
673.6	23.96
673.8	24.09
674.0	23.72
674.2	23.50
674.4	23.81
674.6	23.83
674.8	23.92
675.0	24.03
675.2	23.44
675.4	22.35
675.6	21.82
675.8	21.57
676.0	21.82
676.2	22.46
676.4	22.72
676.6	21.72
676.8	21.07
677.0	21.12
677.2	21.16
677.4	21.45
677.6	21.13
677.8	20.91
678.0	20.54
678.2	20.86
678.4	20.71
678.6	20.69
678.8	20.44
679.0	20.34
679.2	20.13
679.4	20.07
679.6	19.91
679.8	19.68
680.0	19.55
680.2	19.34
680.4	19.02
680.6	18.75
680.8	18.73
681.0	18.86
681.2	19.80
681.4	19.84
681.6	19.03
681.8	18.19
682.0	17.56
682.2	17.32
682.4	18.11
682.6	18.30
682.8	18.37
683.0	18.44
683.2	18.36
683.4	18.02
683.6	17.57
683.8	17.59
684.0	17.40
684.2	17.37
684.4	17.63
684.6	17.41
684.8	16.86
685.0	16.47
685.2	15.81
685.4	15.61
685.6	15.59
685.8	15.66
686.0	15.70
686.2	15.70
686.4	15.61
686.6	15.44
686.8	15.61
687.0	15.96
687.2	16.00
687.4	16.08
687.6	15.83
687.8	15.47
688.0	15.36
688.2	15.36
688.4	14.99
688.6	14.69
688.8	14.42
689.0	14.53
689.2	14.49
689.4	14.92
689.6	15.02
689.8	14.88
690.0	14.43
690.2	14.31
690.4	13.83
690.6	13.78
690.8	13.59
691.0	13.64
691.2	13.35
691.4	13.55
691.6	13.41
691.8	13.45
692.0	13.29
692.2	13.23
692.4	12.98
692.6	12.87
692.8	12.63
693.0	12.74
693.2	12.85
693.4	12.88
693.6	12.64
693.8	12.23
694.0	11.93
694.2	12.20
694.4	12.87
694.6	13.08
694.8	13.32
695.0	13.27
695.2	12.93
695.4	12.60
695.6	12.49
695.8	12.40
696.0	12.24
696.2	12.50
696.4	12.31
696.6	12.12
696.8	11.78
697.0	11.38
697.2	10.91
697.4	11.17
697.6	10.99
697.8	11.03
698.0	11.04
698.2	10.69
698.4	10.74
698.6	11.17
698.8	11.30
699.0	11.26
699.2	11.35
699.4	10.92
699.6	10.66
699.8	10.71
700.0	10.53
700.2	10.47
700.4	10.68
700.6	10.51
700.8	10.69
701.0	10.60
701.2	10.28
701.4	10.26
701.6	10.30
701.8	10.09
702.0	10.40
702.2	10.69
702.4	10.82
702.6	10.41
702.8	10.07
703.0	9.434
703.2	9.678
703.4	9.764
703.6	9.998
703.8	9.620
704.0	9.660
704.2	9.485
704.4	9.531
704.6	9.184
704.8	9.334
705.0	9.447
705.2	9.544
705.4	9.579
705.6	9.260
705.8	8.861
706.0	8.905
706.2	9.390
706.4	9.418
706.6	9.400
706.8	9.068
707.0	8.773
707.2	8.737
707.4	8.903
707.6	8.731
707.8	8.704
708.0	8.259
708.2	8.266
708.4	8.294
708.6	8.452
708.8	8.528
709.0	8.595
709.2	8.451
709.4	8.761
709.6	8.591
709.8	8.682
710.0	8.621
710.2	8.511
710.4	8.446
710.6	8.409
710.8	8.234
711.0	8.136
711.2	7.905
711.4	7.793
711.6	7.633
711.8	7.703
712.0	7.804
712.2	7.768
712.4	7.595
712.6	7.704
712.8	7.647
713.0	7.483
713.2	7.096
713.4	6.848
713.6	6.752
713.8	7.128
714.0	7.413
714.2	7.513
714.4	7.504
714.6	7.320
714.8	7.069
715.0	7.156
715.2	7.288
715.4	7.329
715.6	7.077
715.8	6.887
716.0	6.620
716.2	6.579
716.4	6.595
716.6	6.628
716.8	6.613
717.0	6.837
717.2	6.699
717.4	6.658
717.6	6.596
717.8	6.629
718.0	6.546
718.2	6.369
718.4	5.841
718.6	5.856
718.8	6.174
719.0	6.422
719.2	6.430
719.4	6.415
719.6	6.228
719.8	6.187
720.0	6.279
720.2	6.124
720.4	5.926
720.6	5.839
720.8	5.714
721.0	5.516
721.2	5.135
721.4	5.165
721.6	5.300
721.8	5.620
722.0	6.040
722.2	5.994
722.4	5.547
722.6	5.595
722.8	5.309
723.0	5.446
723.2	5.835
723.4	5.716
723.6	5.737
723.8	5.883
724.0	5.428
724.2	5.261
724.4	5.246
724.6	4.986
724.8	5.063
725.0	5.047
725.2	4.833
725.4	4.983
725.6	5.196
725.8	5.237
726.0	5.285
726.2	5.118
726.4	4.783
726.6	4.821
726.8	4.804
727.0	4.624
727.2	4.618
727.4	4.605
727.6	4.429
727.8	4.553
728.0	4.452
728.2	4.178
728.4	4.279
728.6	4.328
728.8	4.348
729.0	4.535
729.2	4.553
729.4	4.475
729.6	4.456
729.8	4.432
730.0	4.361
730.2	4.404
730.4	4.421
730.6	4.418
730.8	4.432
731.0	4.744
731.2	4.601
731.4	4.439
731.6	4.316
731.8	3.946
732.0	3.792
732.2	3.934
732.4	3.707
732.6	3.775
732.8	3.859
733.0	3.837
733.2	3.835
733.4	3.861
733.6	3.981
733.8	4.028
734.0	3.937
734.2	3.930
734.4	3.846
734.6	3.706
734.8	3.957
735.0	3.772
735.2	3.764
735.4	3.643
735.6	3.454
735.8	3.157
736.0	3.444
736.2	3.587
736.4	3.655
736.6	3.515
736.8	3.532
737.0	3.487
737.2	3.694
737.4	3.716
737.6	3.602
737.8	3.348
738.0	3.309
738.2	3.071
738.4	3.182
738.6	3.266
738.8	3.453
739.0	3.531
739.2	3.524
739.4	3.182
739.6	3.069
739.8	3.258
740.0	3.172
740.2	3.185
740.4	3.098
740.6	3.096
740.8	2.922
741.0	3.160
741.2	3.208
741.4	3.160
741.6	3.043
741.8	2.935
742.0	2.913
742.2	2.987
742.4	3.092
742.6	2.938
742.8	2.917
743.0	2.657
743.2	2.722
743.4	2.802
743.6	2.819
743.8	2.868
744.0	3.120
744.2	3.078
744.4	2.861
744.6	2.708
744.8	2.621
745.0	2.756
745.2	2.843
745.4	2.824
745.6	2.757
745.8	2.695
746.0	2.759
746.2	2.868
746.4	2.863
746.6	2.788
746.8	2.860
747.0	2.745
747.2	2.551
747.4	2.307
747.6	2.260
747.8	2.193
748.0	2.310
748.2	2.388
748.4	2.268
748.6	2.266
748.8	2.410
749.0	2.516
749.2	2.554
749.4	2.604
749.6	2.445
749.8	2.417
750.0	2.451
750.2	2.346
750.4	2.338
750.6	2.393
750.8	2.221
751.0	2.254
751.2	2.213
751.4	2.215
751.6	2.324
751.8	2.256
752.0	2.150
752.2	2.133
752.4	2.096
752.6	2.069
752.8	2.182
753.0	2.159
753.2	2.256
753.4	2.283
753.6	2.383
753.8	2.084
754.0	1.877
754.2	1.765
754.4	1.910
754.6	2.123
754.8	2.316
755.0	2.328
755.2	2.245
755.4	2.138
755.6	2.062
755.8	1.957
756.0	1.937
756.2	1.907
756.4	1.918
756.6	1.801
756.8	1.785
757.0	1.860
757.2	1.958
757.4	1.911
757.6	1.811
757.8	1.670
758.0	1.610
758.2	1.555
758.4	1.592
758.6	1.521
758.8	1.586
759.0	1.620
759.2	1.561
759.4	1.532
759.6	1.704
759.8	1.757
760.0	1.905
760.2	1.852
760.4	1.807
760.6	1.734
760.8	1.701
761.0	1.627
761.2	1.551
761.4	1.500
761.6	1.578
761.8	1.783
762.0	1.959
762.2	1.926
762.4	1.800
762.6	1.604
762.8	1.622
763.0	1.787
763.2	2.045
763.4	2.020
763.6	1.804
763.8	1.626
764.0	1.703
764.2	1.771
764.4	1.914
764.6	1.870
764.8	1.726
765.0	1.576
765.2	1.435
765.4	1.339
765.6	1.322
765.8	1.400
766.0	1.622
766.2	1.642
766.4	1.554
766.6	1.428
766.8	1.392
767.0	1.468
767.2	1.563
767.4	1.567
767.6	1.545
767.8	1.492
768.0	1.529
768.2	1.518
768.4	1.478
768.6	1.322
768.8	1.329
769.0	1.216
769.2	1.173
769.4	1.199
769.6	1.212
769.8	1.192
770.0	1.347
770.2	1.242
770.4	1.184
770.6	1.212
770.8	1.260
771.0	1.410
771.2	1.417
771.4	1.283
771.6	1.216
771.8	1.176
772.0	1.270
772.2	1.323
772.4	1.312
772.6	1.230
772.8	1.227
773.0	1.294
773.2	1.305
773.4	1.264
773.6	1.288
773.8	1.191
774.0	1.098
774.2	1.045
774.4	1.040
774.6	1.150
774.8	1.254
775.0	1.249
775.2	1.203
775.4	1.188
775.6	1.220
775.8	1.169
776.0	1.128
776.2	1.105
776.4	1.086
776.6	1.247
776.8	1.280
777.0	1.182
777.2	1.155
777.4	1.217
777.6	1.235
777.8	1.217
778.0	1.284
778.2	1.140
778.4	1.204
778.6	1.223
778.8	1.195
779.0	1.152
779.2	1.294
779.4	1.296
779.6	1.363
779.8	1.183
780.0	1.159
780.2	1.115
780.4	1.124
780.6	1.165
780.8	1.036
781.0	0.918
781.2	1.047
781.4	1.054
781.6	1.079
781.8	1.126
782.0	1.129
782.2	1.162
782.4	1.216
782.6	1.201
782.8	1.085
783.0	1.077
783.2	1.073
783.4	1.182
783.6	1.330
783.8	1.396
784.0	1.440
784.2	1.374
784.4	1.196
784.6	1.183
784.8	1.131
785.0	1.086
785.2	1.203
785.4	1.196
785.6	1.165
785.8	1.311
786.0	1.498
786.2	1.531
786.4	1.636
786.6	1.522
786.8	1.368
787.0	1.198
787.2	1.284
787.4	1.132
787.6	1.111
787.8	1.136
788.0	1.193
788.2	1.188
788.4	1.295
788.6	1.274
788.8	1.286
789.0	1.353
789.2	1.288
789.4	1.198
789.6	1.078
789.8	1.160
790.0	1.312
790.2	1.437
790.4	1.382
790.6	1.399
790.8	1.230
791.0	1.267
791.2	1.353
791.4	1.441
791.6	1.432
791.8	1.426
792.0	1.284
792.2	1.251
792.4	1.356
792.6	1.441
792.8	1.596
793.0	1.479
793.2	1.418
793.4	1.474
793.6	1.543
793.8	1.446
794.0	1.472
794.2	1.265
794.4	1.139
794.6	1.204
794.8	1.330
795.0	1.586
795.2	1.859
795.4	1.979
795.6	1.983
795.8	1.781
796.0	1.551
796.2	1.557
796.4	1.590
796.6	1.674
796.8	1.675
797.0	1.517
797.2	1.344
797.4	1.415
797.6	1.567
797.8	1.673
798.0	1.824
798.2	1.685
798.4	1.617
798.6	1.641
798.8	1.654
799.0	1.753
799.2	1.918
799.4	1.612
799.6	1.396
799.8	1.368
800.0	1.685

