Sample:	'20211010A(EM)
File name:	G-CDS-600-S2- 20h.FDS
Run date:	'09:19:48, 03/23/2023
Operator:	Administrator
Comment:	'

Instrument
Model:	F-4700 FL Spectrophotometer
Serial number:	2019-001
ROM Version:	5J24010 00

Instrument parameters
Measurement type:	Wavelength scan
Scan mode:	Emission
Data mode:	Fluorescence
EX WL:	400.0 nm
EM  Start WL:	420.0 nm
EM  End WL:	850.0 nm
Scan speed:	1200 nm/min
Delay:	0.0 s
EX Slit:	10.0 nm
EM Slit:	10.0 nm
PMT Voltage:	465 V
Response:	0.002 s
Corrected spectra:	Off
Shutter control:	On

Processing performed
Savitsky-Golay smoothed
Smoothing order:	3
Number of points:	7
Number of times:	1

Peak integration
Integration method:	Rectangular
Sensitivity:	1
Threshold:	1.000

Peaks
No.	Start(nm)	Apex(nm)	End(nm)	Height(Data)	Valley(nm)	Valley(Data)
1	420.0	544.6	545.4	9552	545.4	9541
2	545.4	547.6	778.0	9574	778.0	10.36
3	778.0	800.8	850.0	66.84	850.0	2.731

Data points
nm	Data
420.0	19.94
420.2	20.65
420.4	20.97
420.6	21.05
420.8	21.09
421.0	21.06
421.2	21.11
421.4	21.19
421.6	21.17
421.8	21.38
422.0	21.53
422.2	21.44
422.4	21.21
422.6	21.48
422.8	21.58
423.0	21.67
423.2	21.82
423.4	21.75
423.6	21.96
423.8	22.49
424.0	22.88
424.2	22.98
424.4	22.86
424.6	22.56
424.8	22.74
425.0	22.72
425.2	22.79
425.4	22.79
425.6	22.66
425.8	22.66
426.0	23.10
426.2	23.51
426.4	23.75
426.6	23.83
426.8	23.57
427.0	23.58
427.2	23.89
427.4	24.19
427.6	24.12
427.8	24.14
428.0	23.96
428.2	24.01
428.4	24.27
428.6	24.84
428.8	25.10
429.0	25.63
429.2	25.81
429.4	25.79
429.6	25.58
429.8	25.68
430.0	25.62
430.2	25.87
430.4	25.90
430.6	26.12
430.8	26.37
431.0	26.61
431.2	26.62
431.4	26.86
431.6	26.92
431.8	26.86
432.0	27.18
432.2	27.55
432.4	27.64
432.6	28.02
432.8	28.35
433.0	28.08
433.2	28.04
433.4	28.13
433.6	28.33
433.8	28.73
434.0	29.21
434.2	29.56
434.4	30.02
434.6	30.23
434.8	30.41
435.0	30.46
435.2	30.21
435.4	30.66
435.6	31.10
435.8	31.29
436.0	31.64
436.2	32.05
436.4	32.06
436.6	32.64
436.8	32.83
437.0	33.00
437.2	33.45
437.4	33.66
437.6	33.97
437.8	34.12
438.0	34.10
438.2	34.86
438.4	35.37
438.6	35.86
438.8	35.98
439.0	36.08
439.2	35.93
439.4	36.43
439.6	36.95
439.8	37.84
440.0	38.04
440.2	38.52
440.4	38.68
440.6	38.92
440.8	39.61
441.0	39.98
441.2	40.41
441.4	40.78
441.6	41.17
441.8	41.75
442.0	42.45
442.2	42.74
442.4	43.38
442.6	43.96
442.8	44.73
443.0	45.31
443.2	45.79
443.4	45.82
443.6	46.30
443.8	46.78
444.0	47.53
444.2	48.32
444.4	49.04
444.6	49.46
444.8	50.25
445.0	51.16
445.2	52.13
445.4	52.72
445.6	52.80
445.8	52.95
446.0	53.65
446.2	54.89
446.4	55.73
446.6	56.53
446.8	57.06
447.0	57.86
447.2	58.91
447.4	59.23
447.6	59.81
447.8	60.47
448.0	61.22
448.2	62.09
448.4	62.86
448.6	63.39
448.8	64.35
449.0	64.86
449.2	65.80
449.4	66.58
449.6	67.18
449.8	68.22
450.0	68.72
450.2	69.45
450.4	70.43
450.6	71.76
450.8	72.90
451.0	73.88
451.2	74.40
451.4	74.83
451.6	75.24
451.8	75.84
452.0	76.29
452.2	77.47
452.4	78.39
452.6	79.37
452.8	80.26
453.0	80.77
453.2	80.90
453.4	81.86
453.6	82.33
453.8	83.38
454.0	83.72
454.2	84.18
454.4	84.36
454.6	85.51
454.8	85.90
455.0	86.80
455.2	87.56
455.4	88.00
455.6	88.70
455.8	90.21
456.0	90.20
456.2	90.79
456.4	91.45
456.6	91.70
456.8	92.86
457.0	93.78
457.2	94.09
457.4	94.42
457.6	94.42
457.8	94.62
458.0	95.84
458.2	96.87
458.4	97.28
458.6	97.82
458.8	98.29
459.0	98.94
459.2	99.70
459.4	100.1
459.6	99.45
459.8	99.96
460.0	100.5
460.2	101.6
460.4	102.2
460.6	103.0
460.8	103.4
461.0	104.5
461.2	105.7
461.4	106.5
461.6	106.9
461.8	107.7
462.0	108.0
462.2	108.7
462.4	109.7
462.6	110.4
462.8	111.5
463.0	113.3
463.2	114.0
463.4	114.4
463.6	114.7
463.8	114.8
464.0	116.2
464.2	117.9
464.4	118.8
464.6	119.7
464.8	121.1
465.0	122.0
465.2	123.2
465.4	124.2
465.6	125.0
465.8	126.6
466.0	128.4
466.2	129.3
466.4	129.2
466.6	130.2
466.8	131.9
467.0	134.8
467.2	136.5
467.4	138.0
467.6	138.3
467.8	139.5
468.0	140.1
468.2	141.6
468.4	142.7
468.6	144.7
468.8	147.5
469.0	149.3
469.2	150.4
469.4	152.3
469.6	154.4
469.8	157.6
470.0	161.0
470.2	162.9
470.4	164.8
470.6	167.2
470.8	169.0
471.0	171.6
471.2	174.2
471.4	176.8
471.6	178.9
471.8	181.1
472.0	183.1
472.2	184.7
472.4	187.7
472.6	190.8
472.8	194.2
473.0	197.7
473.2	201.3
473.4	204.2
473.6	207.1
473.8	209.1
474.0	212.6
474.2	216.4
474.4	220.6
474.6	225.7
474.8	229.1
475.0	233.5
475.2	236.7
475.4	240.2
475.6	243.8
475.8	249.0
476.0	253.7
476.2	258.7
476.4	262.4
476.6	266.7
476.8	271.1
477.0	276.2
477.2	280.8
477.4	284.9
477.6	289.0
477.8	294.8
478.0	301.1
478.2	305.5
478.4	310.1
478.6	315.5
478.8	320.8
479.0	329.0
479.2	334.8
479.4	340.0
479.6	345.1
479.8	351.1
480.0	357.2
480.2	365.2
480.4	371.9
480.6	378.9
480.8	386.6
481.0	393.5
481.2	399.8
481.4	407.3
481.6	413.9
481.8	421.2
482.0	429.4
482.2	436.9
482.4	446.3
482.6	455.9
482.8	462.0
483.0	469.9
483.2	476.7
483.4	485.7
483.6	496.1
483.8	506.3
484.0	514.8
484.2	524.8
484.4	533.7
484.6	543.3
484.8	552.1
485.0	560.5
485.2	570.1
485.4	581.3
485.6	592.0
485.8	603.7
486.0	614.7
486.2	625.4
486.4	635.4
486.6	647.3
486.8	658.2
487.0	671.7
487.2	684.0
487.4	695.8
487.6	706.8
487.8	720.2
488.0	731.3
488.2	744.4
488.4	758.2
488.6	772.2
488.8	787.4
489.0	801.3
489.2	812.8
489.4	827.5
489.6	843.5
489.8	861.1
490.0	878.8
490.2	892.7
490.4	905.3
490.6	920.8
490.8	937.2
491.0	954.0
491.2	970.5
491.4	987.4
491.6	1006
491.8	1025
492.0	1044
492.2	1061
492.4	1076
492.6	1095
492.8	1114
493.0	1136
493.2	1157
493.4	1176
493.6	1193
493.8	1212
494.0	1234
494.2	1256
494.4	1278
494.6	1301
494.8	1321
495.0	1342
495.2	1364
495.4	1386
495.6	1409
495.8	1432
496.0	1455
496.2	1481
496.4	1506
496.6	1532
496.8	1559
497.0	1585
497.2	1608
497.4	1634
497.6	1662
497.8	1688
498.0	1716
498.2	1743
498.4	1769
498.6	1798
498.8	1827
499.0	1856
499.2	1885
499.4	1916
499.6	1946
499.8	1975
500.0	2006
500.2	2037
500.4	2067
500.6	2101
500.8	2134
501.0	2171
501.2	2207
501.4	2242
501.6	2272
501.8	2299
502.0	2331
502.2	2366
502.4	2401
502.6	2438
502.8	2478
503.0	2511
503.2	2548
503.4	2582
503.6	2615
503.8	2649
504.0	2689
504.2	2729
504.4	2770
504.6	2811
504.8	2848
505.0	2886
505.2	2921
505.4	2960
505.6	2995
505.8	3036
506.0	3074
506.2	3118
506.4	3158
506.6	3200
506.8	3235
507.0	3273
507.2	3312
507.4	3358
507.6	3406
507.8	3454
508.0	3496
508.2	3535
508.4	3575
508.6	3619
508.8	3659
509.0	3707
509.2	3752
509.4	3797
509.6	3841
509.8	3884
510.0	3925
510.2	3973
510.4	4016
510.6	4068
510.8	4114
511.0	4164
511.2	4209
511.4	4255
511.6	4296
511.8	4339
512.0	4385
512.2	4435
512.4	4483
512.6	4532
512.8	4577
513.0	4619
513.2	4667
513.4	4712
513.6	4760
513.8	4801
514.0	4847
514.2	4902
514.4	4953
514.6	5004
514.8	5048
515.0	5093
515.2	5139
515.4	5195
515.6	5245
515.8	5295
516.0	5338
516.2	5380
516.4	5420
516.6	5466
516.8	5509
517.0	5563
517.2	5612
517.4	5658
517.6	5705
517.8	5748
518.0	5795
518.2	5849
518.4	5892
518.6	5939
518.8	5984
519.0	6031
519.2	6079
519.4	6127
519.6	6170
519.8	6210
520.0	6253
520.2	6301
520.4	6353
520.6	6406
520.8	6452
521.0	6490
521.2	6525
521.4	6568
521.6	6623
521.8	6672
522.0	6719
522.2	6761
522.4	6801
522.6	6845
522.8	6889
523.0	6932
523.2	6973
523.4	7016
523.6	7062
523.8	7104
524.0	7146
524.2	7186
524.4	7224
524.6	7266
524.8	7306
525.0	7349
525.2	7390
525.4	7430
525.6	7477
525.8	7515
526.0	7553
526.2	7589
526.4	7620
526.6	7662
526.8	7702
527.0	7743
527.2	7788
527.4	7825
527.6	7858
527.8	7898
528.0	7930
528.2	7967
528.4	8002
528.6	8040
528.8	8071
529.0	8108
529.2	8139
529.4	8170
529.6	8203
529.8	8236
530.0	8263
530.2	8299
530.4	8331
530.6	8362
530.8	8391
531.0	8422
531.2	8450
531.4	8488
531.6	8525
531.8	8558
532.0	8581
532.2	8605
532.4	8625
532.6	8649
532.8	8672
533.0	8702
533.2	8734
533.4	8763
533.6	8788
533.8	8807
534.0	8823
534.2	8841
534.4	8867
534.6	8894
534.8	8919
535.0	8948
535.2	8974
535.4	8997
535.6	9021
535.8	9039
536.0	9052
536.2	9071
536.4	9093
536.6	9116
536.8	9134
537.0	9151
537.2	9163
537.4	9177
537.6	9196
537.8	9211
538.0	9230
538.2	9251
538.4	9261
538.6	9269
538.8	9278
539.0	9291
539.2	9311
539.4	9331
539.6	9348
539.8	9361
540.0	9372
540.2	9389
540.4	9408
540.6	9422
540.8	9436
541.0	9448
541.2	9452
541.4	9459
541.6	9469
541.8	9475
542.0	9486
542.2	9495
542.4	9498
542.6	9501
542.8	9504
543.0	9510
543.2	9517
543.4	9519
543.6	9524
543.8	9525
544.0	9535
544.2	9542
544.4	9547
544.6	9552
544.8	9552
545.0	9548
545.2	9543
545.4	9541
545.6	9544
545.8	9547
546.0	9551
546.2	9551
546.4	9549
546.6	9552
546.8	9557
547.0	9561
547.2	9565
547.4	9568
547.6	9574
547.8	9566
548.0	9553
548.2	9545
548.4	9532
548.6	9526
548.8	9519
549.0	9512
549.2	9504
549.4	9506
549.6	9501
549.8	9495
550.0	9483
550.2	9482
550.4	9481
550.6	9480
550.8	9476
551.0	9470
551.2	9455
551.4	9449
551.6	9440
551.8	9431
552.0	9433
552.2	9420
552.4	9408
552.6	9403
552.8	9389
553.0	9379
553.2	9366
553.4	9345
553.6	9333
553.8	9316
554.0	9308
554.2	9303
554.4	9295
554.6	9286
554.8	9272
555.0	9259
555.2	9248
555.4	9230
555.6	9224
555.8	9208
556.0	9194
556.2	9183
556.4	9163
556.6	9145
556.8	9132
557.0	9116
557.2	9100
557.4	9079
557.6	9059
557.8	9044
558.0	9028
558.2	9009
558.4	8988
558.6	8971
558.8	8951
559.0	8935
559.2	8915
559.4	8892
559.6	8877
559.8	8868
560.0	8862
560.2	8854
560.4	8831
560.6	8810
560.8	8786
561.0	8773
561.2	8758
561.4	8737
561.6	8718
561.8	8693
562.0	8669
562.2	8650
562.4	8624
562.6	8597
562.8	8576
563.0	8557
563.2	8537
563.4	8520
563.6	8501
563.8	8477
564.0	8458
564.2	8444
564.4	8418
564.6	8405
564.8	8386
565.0	8364
565.2	8340
565.4	8314
565.6	8290
565.8	8272
566.0	8253
566.2	8234
566.4	8208
566.6	8185
566.8	8161
567.0	8144
567.2	8122
567.4	8104
567.6	8086
567.8	8064
568.0	8034
568.2	8011
568.4	7984
568.6	7961
568.8	7933
569.0	7912
569.2	7887
569.4	7862
569.6	7848
569.8	7825
570.0	7803
570.2	7779
570.4	7748
570.6	7717
570.8	7693
571.0	7666
571.2	7643
571.4	7610
571.6	7581
571.8	7554
572.0	7530
572.2	7512
572.4	7489
572.6	7462
572.8	7433
573.0	7410
573.2	7385
573.4	7366
573.6	7345
573.8	7323
574.0	7300
574.2	7283
574.4	7256
574.6	7231
574.8	7203
575.0	7176
575.2	7151
575.4	7132
575.6	7109
575.8	7082
576.0	7057
576.2	7031
576.4	6999
576.6	6976
576.8	6946
577.0	6922
577.2	6897
577.4	6874
577.6	6849
577.8	6824
578.0	6796
578.2	6776
578.4	6752
578.6	6731
578.8	6712
579.0	6685
579.2	6663
579.4	6637
579.6	6612
579.8	6587
580.0	6563
580.2	6534
580.4	6505
580.6	6476
580.8	6449
581.0	6428
581.2	6405
581.4	6379
581.6	6355
581.8	6335
582.0	6310
582.2	6283
582.4	6256
582.6	6230
582.8	6207
583.0	6189
583.2	6161
583.4	6134
583.6	6109
583.8	6087
584.0	6063
584.2	6045
584.4	6018
584.6	5990
584.8	5955
585.0	5924
585.2	5897
585.4	5878
585.6	5861
585.8	5845
586.0	5820
586.2	5797
586.4	5771
586.6	5749
586.8	5727
587.0	5709
587.2	5687
587.4	5663
587.6	5639
587.8	5616
588.0	5592
588.2	5575
588.4	5551
588.6	5531
588.8	5505
589.0	5476
589.2	5451
589.4	5425
589.6	5399
589.8	5380
590.0	5353
590.2	5332
590.4	5309
590.6	5289
590.8	5269
591.0	5253
591.2	5230
591.4	5211
591.6	5189
591.8	5168
592.0	5146
592.2	5122
592.4	5090
592.6	5065
592.8	5042
593.0	5020
593.2	5006
593.4	4984
593.6	4962
593.8	4936
594.0	4911
594.2	4887
594.4	4862
594.6	4835
594.8	4817
595.0	4797
595.2	4779
595.4	4762
595.6	4738
595.8	4713
596.0	4696
596.2	4675
596.4	4652
596.6	4635
596.8	4611
597.0	4590
597.2	4574
597.4	4551
597.6	4528
597.8	4508
598.0	4485
598.2	4464
598.4	4443
598.6	4422
598.8	4399
599.0	4380
599.2	4361
599.4	4341
599.6	4321
599.8	4302
600.0	4280
600.2	4260
600.4	4237
600.6	4217
600.8	4194
601.0	4176
601.2	4157
601.4	4137
601.6	4121
601.8	4100
602.0	4077
602.2	4053
602.4	4027
602.6	4007
602.8	3990
603.0	3972
603.2	3954
603.4	3932
603.6	3914
603.8	3898
604.0	3880
604.2	3860
604.4	3841
604.6	3820
604.8	3804
605.0	3785
605.2	3763
605.4	3739
605.6	3723
605.8	3705
606.0	3691
606.2	3673
606.4	3649
606.6	3627
606.8	3605
607.0	3586
607.2	3567
607.4	3549
607.6	3531
607.8	3513
608.0	3495
608.2	3483
608.4	3465
608.6	3449
608.8	3433
609.0	3413
609.2	3394
609.4	3375
609.6	3354
609.8	3336
610.0	3318
610.2	3299
610.4	3279
610.6	3263
610.8	3245
611.0	3228
611.2	3211
611.4	3190
611.6	3170
611.8	3152
612.0	3133
612.2	3118
612.4	3103
612.6	3088
612.8	3073
613.0	3053
613.2	3037
613.4	3021
613.6	3007
613.8	2990
614.0	2976
614.2	2961
614.4	2944
614.6	2924
614.8	2905
615.0	2886
615.2	2871
615.4	2854
615.6	2839
615.8	2820
616.0	2803
616.2	2788
616.4	2771
616.6	2754
616.8	2740
617.0	2725
617.2	2711
617.4	2695
617.6	2680
617.8	2665
618.0	2651
618.2	2639
618.4	2622
618.6	2604
618.8	2591
619.0	2577
619.2	2563
619.4	2550
619.6	2533
619.8	2512
620.0	2496
620.2	2478
620.4	2464
620.6	2454
620.8	2440
621.0	2424
621.2	2411
621.4	2396
621.6	2383
621.8	2369
622.0	2353
622.2	2339
622.4	2326
622.6	2313
622.8	2302
623.0	2289
623.2	2275
623.4	2261
623.6	2246
623.8	2232
624.0	2220
624.2	2206
624.4	2190
624.6	2176
624.8	2165
625.0	2150
625.2	2139
625.4	2126
625.6	2111
625.8	2098
626.0	2084
626.2	2072
626.4	2063
626.6	2053
626.8	2039
627.0	2027
627.2	2012
627.4	1997
627.6	1984
627.8	1971
628.0	1958
628.2	1948
628.4	1935
628.6	1920
628.8	1907
629.0	1896
629.2	1884
629.4	1873
629.6	1863
629.8	1849
630.0	1837
630.2	1824
630.4	1812
630.6	1801
630.8	1792
631.0	1781
631.2	1774
631.4	1761
631.6	1749
631.8	1736
632.0	1722
632.2	1710
632.4	1704
632.6	1695
632.8	1685
633.0	1673
633.2	1661
633.4	1649
633.6	1641
633.8	1631
634.0	1619
634.2	1606
634.4	1596
634.6	1582
634.8	1573
635.0	1564
635.2	1556
635.4	1547
635.6	1538
635.8	1526
636.0	1515
636.2	1505
636.4	1496
636.6	1488
636.8	1480
637.0	1471
637.2	1463
637.4	1454
637.6	1445
637.8	1433
638.0	1421
638.2	1411
638.4	1403
638.6	1394
638.8	1385
639.0	1377
639.2	1369
639.4	1361
639.6	1351
639.8	1338
640.0	1326
640.2	1318
640.4	1311
640.6	1301
640.8	1293
641.0	1284
641.2	1277
641.4	1271
641.6	1265
641.8	1254
642.0	1246
642.2	1236
642.4	1229
642.6	1222
642.8	1216
643.0	1207
643.2	1200
643.4	1191
643.6	1181
643.8	1170
644.0	1164
644.2	1154
644.4	1148
644.6	1143
644.8	1135
645.0	1129
645.2	1123
645.4	1113
645.6	1104
645.8	1096
646.0	1088
646.2	1084
646.4	1077
646.6	1073
646.8	1066
647.0	1061
647.2	1054
647.4	1046
647.6	1036
647.8	1028
648.0	1020
648.2	1013
648.4	1008
648.6	1002
648.8	992.6
649.0	984.0
649.2	977.7
649.4	969.4
649.6	965.5
649.8	959.7
650.0	953.6
650.2	947.1
650.4	940.3
650.6	931.7
650.8	926.6
651.0	920.6
651.2	916.3
651.4	910.3
651.6	903.8
651.8	895.6
652.0	889.2
652.2	884.2
652.4	879.2
652.6	874.4
652.8	867.1
653.0	858.4
653.2	851.8
653.4	846.7
653.6	840.5
653.8	835.8
654.0	828.3
654.2	822.4
654.4	818.1
654.6	812.8
654.8	806.4
655.0	800.5
655.2	795.0
655.4	788.4
655.6	785.0
655.8	780.7
656.0	776.3
656.2	772.0
656.4	765.8
656.6	757.6
656.8	753.0
657.0	747.6
657.2	742.6
657.4	738.8
657.6	734.1
657.8	728.9
658.0	724.0
658.2	719.1
658.4	713.8
658.6	707.0
658.8	703.3
659.0	697.8
659.2	692.9
659.4	689.0
659.6	685.3
659.8	678.9
660.0	674.5
660.2	669.8
660.4	665.3
660.6	659.8
660.8	655.6
661.0	650.6
661.2	647.2
661.4	642.6
661.6	637.6
661.8	631.7
662.0	627.3
662.2	623.9
662.4	620.6
662.6	615.4
662.8	610.5
663.0	604.8
663.2	601.1
663.4	595.8
663.6	591.6
663.8	587.3
664.0	583.8
664.2	578.7
664.4	576.8
664.6	571.6
664.8	567.6
665.0	563.5
665.2	560.5
665.4	555.0
665.6	553.5
665.8	549.9
666.0	545.9
666.2	541.3
666.4	537.3
666.6	531.3
666.8	527.5
667.0	523.7
667.2	520.0
667.4	516.5
667.6	513.5
667.8	509.6
668.0	506.9
668.2	503.7
668.4	500.4
668.6	497.9
668.8	494.3
669.0	489.4
669.2	484.7
669.4	480.6
669.6	476.9
669.8	475.3
670.0	472.4
670.2	469.7
670.4	466.2
670.6	462.7
670.8	459.2
671.0	456.5
671.2	451.0
671.4	446.6
671.6	443.6
671.8	439.5
672.0	437.2
672.2	434.9
672.4	431.4
672.6	428.3
672.8	426.5
673.0	423.6
673.2	420.7
673.4	417.7
673.6	415.1
673.8	410.6
674.0	406.1
674.2	403.2
674.4	399.4
674.6	397.3
674.8	395.6
675.0	392.4
675.2	389.4
675.4	386.7
675.6	383.8
675.8	380.5
676.0	376.4
676.2	372.6
676.4	368.7
676.6	366.5
676.8	366.0
677.0	363.3
677.2	360.7
677.4	358.7
677.6	355.5
677.8	353.5
678.0	351.7
678.2	348.0
678.4	346.1
678.6	343.4
678.8	341.2
679.0	338.7
679.2	335.5
679.4	331.9
679.6	329.1
679.8	325.3
680.0	324.5
680.2	323.8
680.4	322.6
680.6	320.8
680.8	318.6
681.0	315.0
681.2	311.6
681.4	309.1
681.6	306.3
681.8	303.5
682.0	301.2
682.2	298.5
682.4	296.0
682.6	295.4
682.8	294.1
683.0	293.2
683.2	291.3
683.4	288.8
683.6	286.3
683.8	283.6
684.0	280.9
684.2	278.6
684.4	276.7
684.6	274.9
684.8	273.3
685.0	270.4
685.2	267.9
685.4	265.3
685.6	263.0
685.8	262.0
686.0	261.2
686.2	259.6
686.4	257.4
686.6	254.5
686.8	251.6
687.0	249.8
687.2	249.1
687.4	247.4
687.6	245.7
687.8	243.3
688.0	241.6
688.2	241.1
688.4	240.1
688.6	237.7
688.8	235.5
689.0	232.9
689.2	231.5
689.4	230.7
689.6	229.1
689.8	226.8
690.0	225.2
690.2	223.3
690.4	221.5
690.6	219.0
690.8	216.9
691.0	215.2
691.2	215.3
691.4	214.8
691.6	214.1
691.8	212.0
692.0	209.3
692.2	207.5
692.4	207.0
692.6	206.3
692.8	205.1
693.0	201.7
693.2	198.7
693.4	196.7
693.6	195.8
693.8	195.2
694.0	195.0
694.2	194.0
694.4	192.9
694.6	191.5
694.8	190.1
695.0	188.3
695.2	186.8
695.4	185.8
695.6	184.9
695.8	183.4
696.0	182.9
696.2	181.8
696.4	180.4
696.6	179.0
696.8	178.5
697.0	176.7
697.2	175.1
697.4	173.5
697.6	172.7
697.8	171.7
698.0	170.9
698.2	169.3
698.4	167.9
698.6	166.9
698.8	166.6
699.0	164.5
699.2	163.2
699.4	162.4
699.6	161.6
699.8	160.5
700.0	159.5
700.2	157.4
700.4	156.7
700.6	156.4
700.8	155.6
701.0	154.7
701.2	152.8
701.4	151.6
701.6	150.3
701.8	149.8
702.0	148.9
702.2	148.1
702.4	146.6
702.6	146.0
702.8	144.8
703.0	144.8
703.2	143.4
703.4	142.6
703.6	141.5
703.8	140.2
704.0	138.7
704.2	138.4
704.4	137.6
704.6	137.1
704.8	136.1
705.0	134.9
705.2	133.4
705.4	132.8
705.6	132.8
705.8	132.1
706.0	130.9
706.2	129.7
706.4	129.0
706.6	128.2
706.8	128.4
707.0	127.5
707.2	126.4
707.4	125.3
707.6	125.1
707.8	123.7
708.0	123.3
708.2	122.4
708.4	121.3
708.6	120.0
708.8	119.6
709.0	118.4
709.2	117.9
709.4	117.1
709.6	116.1
709.8	114.8
710.0	114.9
710.2	114.1
710.4	113.3
710.6	112.3
710.8	111.6
711.0	110.5
711.2	109.6
711.4	108.9
711.6	108.1
711.8	107.4
712.0	106.6
712.2	105.5
712.4	104.6
712.6	104.2
712.8	103.8
713.0	103.3
713.2	102.7
713.4	101.7
713.6	101.2
713.8	100.7
714.0	99.96
714.2	99.32
714.4	98.48
714.6	97.16
714.8	96.33
715.0	95.90
715.2	95.04
715.4	94.78
715.6	94.71
715.8	94.33
716.0	93.90
716.2	93.27
716.4	92.79
716.6	91.34
716.8	90.39
717.0	89.16
717.2	88.46
717.4	87.93
717.6	87.81
717.8	86.97
718.0	86.45
718.2	85.85
718.4	85.54
718.6	84.87
718.8	84.29
719.0	83.37
719.2	82.93
719.4	82.09
719.6	81.17
719.8	80.68
720.0	80.51
720.2	80.09
720.4	79.63
720.6	78.61
720.8	77.64
721.0	76.95
721.2	76.36
721.4	75.54
721.6	75.08
721.8	74.52
722.0	73.89
722.2	73.15
722.4	72.06
722.6	70.96
722.8	70.56
723.0	71.03
723.2	71.81
723.4	71.96
723.6	71.34
723.8	70.59
724.0	69.35
724.2	68.49
724.4	67.80
724.6	66.80
724.8	65.85
725.0	65.42
725.2	65.58
725.4	65.27
725.6	65.33
725.8	65.34
726.0	64.03
726.2	63.06
726.4	62.10
726.6	61.45
726.8	61.38
727.0	61.13
727.2	60.19
727.4	59.49
727.6	58.65
727.8	58.62
728.0	58.71
728.2	58.37
728.4	57.86
728.6	56.99
728.8	56.18
729.0	55.44
729.2	55.40
729.4	55.40
729.6	55.48
729.8	55.08
730.0	54.43
730.2	53.76
730.4	53.29
730.6	53.14
730.8	52.91
731.0	52.20
731.2	51.41
731.4	50.72
731.6	50.30
731.8	50.39
732.0	50.25
732.2	49.95
732.4	49.87
732.6	49.22
732.8	49.13
733.0	48.60
733.2	48.40
733.4	48.01
733.6	47.87
733.8	46.95
734.0	46.23
734.2	45.36
734.4	45.07
734.6	44.82
734.8	44.99
735.0	44.66
735.2	44.11
735.4	43.85
735.6	43.57
735.8	43.38
736.0	43.33
736.2	42.66
736.4	42.06
736.6	41.74
736.8	41.59
737.0	41.53
737.2	41.47
737.4	40.70
737.6	40.25
737.8	39.78
738.0	39.58
738.2	39.33
738.4	39.16
738.6	38.79
738.8	38.21
739.0	37.92
739.2	37.95
739.4	37.71
739.6	37.76
739.8	37.47
740.0	36.95
740.2	36.60
740.4	36.34
740.6	35.72
740.8	35.11
741.0	34.76
741.2	34.87
741.4	34.66
741.6	34.85
741.8	34.52
742.0	34.12
742.2	34.17
742.4	33.84
742.6	33.32
742.8	33.19
743.0	32.71
743.2	32.54
743.4	32.32
743.6	32.11
743.8	32.15
744.0	31.89
744.2	31.31
744.4	31.15
744.6	31.07
744.8	31.19
745.0	30.96
745.2	30.43
745.4	29.69
745.6	29.40
745.8	29.34
746.0	29.69
746.2	29.44
746.4	29.41
746.6	29.22
746.8	28.69
747.0	28.15
747.2	27.99
747.4	27.78
747.6	27.76
747.8	27.99
748.0	27.71
748.2	27.05
748.4	26.72
748.6	26.81
748.8	26.84
749.0	27.00
749.2	26.74
749.4	26.12
749.6	25.94
749.8	25.99
750.0	25.85
750.2	25.72
750.4	25.51
750.6	25.36
750.8	25.29
751.0	25.17
751.2	24.76
751.4	24.34
751.6	23.97
751.8	23.82
752.0	23.69
752.2	23.77
752.4	23.57
752.6	23.55
752.8	23.36
753.0	23.03
753.2	22.56
753.4	22.45
753.6	22.08
753.8	22.24
754.0	22.06
754.2	21.97
754.4	21.68
754.6	21.79
754.8	21.77
755.0	21.79
755.2	21.28
755.4	21.34
755.6	21.00
755.8	20.88
756.0	20.88
756.2	20.84
756.4	20.48
756.6	20.46
756.8	20.34
757.0	20.04
757.2	19.81
757.4	19.62
757.6	19.35
757.8	19.25
758.0	19.27
758.2	19.30
758.4	19.29
758.6	19.10
758.8	18.86
759.0	18.63
759.2	18.46
759.4	18.33
759.6	18.13
759.8	17.92
760.0	17.74
760.2	17.61
760.4	17.75
760.6	17.79
760.8	17.58
761.0	17.45
761.2	16.96
761.4	16.67
761.6	16.46
761.8	16.24
762.0	16.36
762.2	16.50
762.4	16.53
762.6	16.63
762.8	16.31
763.0	16.01
763.2	16.15
763.4	16.23
763.6	16.11
763.8	15.91
764.0	15.49
764.2	15.28
764.4	15.22
764.6	15.40
764.8	15.18
765.0	15.09
765.2	14.87
765.4	14.51
765.6	14.54
765.8	14.60
766.0	14.51
766.2	14.34
766.4	14.32
766.6	14.11
766.8	14.14
767.0	14.27
767.2	14.31
767.4	14.10
767.6	14.07
767.8	13.83
768.0	13.64
768.2	13.71
768.4	13.66
768.6	13.59
768.8	13.60
769.0	13.61
769.2	13.57
769.4	13.35
769.6	13.01
769.8	12.63
770.0	12.57
770.2	12.54
770.4	12.48
770.6	12.32
770.8	12.11
771.0	11.79
771.2	11.64
771.4	11.55
771.6	11.64
771.8	11.80
772.0	11.95
772.2	12.12
772.4	12.17
772.6	11.89
772.8	11.73
773.0	11.53
773.2	11.30
773.4	11.15
773.6	11.43
773.8	11.44
774.0	11.54
774.2	11.44
774.4	11.29
774.6	11.11
774.8	11.07
775.0	11.21
775.2	10.95
775.4	10.71
775.6	10.72
775.8	10.78
776.0	10.64
776.2	10.68
776.4	10.51
776.6	10.61
776.8	10.85
777.0	10.83
777.2	10.78
777.4	10.64
777.6	10.56
777.8	10.41
778.0	10.36
778.2	10.45
778.4	10.52
778.6	10.66
778.8	10.61
779.0	10.30
779.2	10.36
779.4	10.54
779.6	10.78
779.8	11.09
780.0	11.20
780.2	11.17
780.4	11.37
780.6	11.35
780.8	11.44
781.0	11.43
781.2	11.43
781.4	11.60
781.6	11.78
781.8	12.06
782.0	12.12
782.2	12.12
782.4	12.15
782.6	12.70
782.8	13.13
783.0	13.58
783.2	13.70
783.4	13.75
783.6	13.67
783.8	14.12
784.0	14.57
784.2	15.34
784.4	15.88
784.6	16.28
784.8	16.50
785.0	16.69
785.2	16.92
785.4	17.51
785.6	18.26
785.8	18.85
786.0	19.34
786.2	19.87
786.4	20.30
786.6	20.88
786.8	21.71
787.0	22.51
787.2	23.29
787.4	23.89
787.6	24.41
787.8	24.93
788.0	25.61
788.2	26.67
788.4	27.62
788.6	28.22
788.8	29.09
789.0	29.72
789.2	30.61
789.4	31.65
789.6	32.66
789.8	33.66
790.0	34.71
790.2	35.64
790.4	36.14
790.6	36.77
790.8	37.59
791.0	38.51
791.2	39.34
791.4	40.32
791.6	41.15
791.8	42.01
792.0	42.72
792.2	43.36
792.4	44.45
792.6	45.16
792.8	46.21
793.0	47.11
793.2	47.77
793.4	48.42
793.6	49.34
793.8	50.12
794.0	50.73
794.2	51.69
794.4	52.76
794.6	53.55
794.8	54.24
795.0	55.22
795.2	55.52
795.4	56.21
795.6	56.97
795.8	57.47
796.0	58.09
796.2	58.65
796.4	59.18
796.6	59.73
796.8	60.30
797.0	60.77
797.2	60.94
797.4	61.16
797.6	62.01
797.8	63.05
798.0	64.07
798.2	64.50
798.4	64.39
798.6	63.85
798.8	63.81
799.0	64.28
799.2	64.66
799.4	65.03
799.6	65.51
799.8	65.67
800.0	65.98
800.2	66.21
800.4	66.51
800.6	66.71
800.8	66.84
801.0	66.77
801.2	66.71
801.4	66.30
801.6	66.11
801.8	65.99
802.0	66.39
802.2	66.53
802.4	66.74
802.6	66.54
802.8	66.24
803.0	66.11
803.2	66.14
803.4	65.87
803.6	65.43
803.8	65.59
804.0	65.39
804.2	64.81
804.4	64.34
804.6	63.23
804.8	62.87
805.0	63.21
805.2	62.93
805.4	62.23
805.6	61.67
805.8	60.63
806.0	60.46
806.2	60.13
806.4	59.36
806.6	58.21
806.8	57.66
807.0	56.95
807.2	56.54
807.4	56.48
807.6	55.86
807.8	55.16
808.0	54.65
808.2	53.50
808.4	52.64
808.6	52.23
808.8	51.56
809.0	51.06
809.2	50.38
809.4	49.51
809.6	48.74
809.8	48.08
810.0	47.35
810.2	46.54
810.4	46.05
810.6	45.56
810.8	44.73
811.0	43.65
811.2	42.68
811.4	42.04
811.6	41.84
811.8	41.07
812.0	39.72
812.2	38.24
812.4	37.56
812.6	37.47
812.8	37.31
813.0	36.51
813.2	35.09
813.4	33.63
813.6	32.78
813.8	32.02
814.0	31.70
814.2	31.45
814.4	30.76
814.6	29.93
814.8	29.27
815.0	28.29
815.2	27.63
815.4	27.14
815.6	26.42
815.8	25.50
816.0	25.08
816.2	24.27
816.4	23.34
816.6	22.72
816.8	22.14
817.0	21.61
817.2	21.14
817.4	20.53
817.6	19.49
817.8	18.85
818.0	18.21
818.2	17.67
818.4	16.97
818.6	16.85
818.8	16.54
819.0	16.38
819.2	15.80
819.4	15.13
819.6	14.21
819.8	13.69
820.0	13.27
820.2	12.81
820.4	12.41
820.6	11.86
820.8	11.41
821.0	11.21
821.2	11.16
821.4	10.85
821.6	10.49
821.8	9.829
822.0	9.430
822.2	9.144
822.4	8.935
822.6	8.652
822.8	8.415
823.0	8.159
823.2	7.853
823.4	7.724
823.6	7.629
823.8	7.532
824.0	7.342
824.2	7.002
824.4	6.618
824.6	6.360
824.8	6.194
825.0	6.123
825.2	5.990
825.4	5.659
825.6	5.476
825.8	5.212
826.0	5.213
826.2	5.313
826.4	5.360
826.6	5.206
826.8	5.057
827.0	4.889
827.2	4.787
827.4	4.694
827.6	4.608
827.8	4.596
828.0	4.471
828.2	4.466
828.4	4.378
828.6	4.265
828.8	4.187
829.0	4.282
829.2	4.250
829.4	4.254
829.6	4.186
829.8	4.077
830.0	4.023
830.2	4.047
830.4	4.030
830.6	3.997
830.8	3.927
831.0	3.826
831.2	3.758
831.4	3.710
831.6	3.611
831.8	3.709
832.0	3.755
832.2	3.675
832.4	3.587
832.6	3.410
832.8	3.243
833.0	3.365
833.2	3.491
833.4	3.584
833.6	3.715
833.8	3.626
834.0	3.490
834.2	3.451
834.4	3.447
834.6	3.485
834.8	3.497
835.0	3.400
835.2	3.271
835.4	3.233
835.6	3.288
835.8	3.441
836.0	3.438
836.2	3.506
836.4	3.410
836.6	3.279
836.8	3.250
837.0	3.307
837.2	3.207
837.4	3.174
837.6	3.067
837.8	2.992
838.0	3.023
838.2	3.100
838.4	3.143
838.6	3.147
838.8	3.120
839.0	3.070
839.2	3.012
839.4	3.039
839.6	3.052
839.8	3.124
840.0	3.127
840.2	3.095
840.4	3.069
840.6	3.095
840.8	3.091
841.0	3.199
841.2	3.169
841.4	2.989
841.6	2.915
841.8	2.853
842.0	2.805
842.2	2.817
842.4	2.795
842.6	2.740
842.8	2.829
843.0	2.927
843.2	2.943
843.4	2.894
843.6	2.853
843.8	2.786
844.0	2.753
844.2	2.741
844.4	2.728
844.6	2.736
844.8	2.845
845.0	2.831
845.2	2.817
845.4	2.823
845.6	2.756
845.8	2.745
846.0	2.788
846.2	2.760
846.4	2.696
846.6	2.811
846.8	2.770
847.0	2.650
847.2	2.633
847.4	2.612
847.6	2.599
847.8	2.663
848.0	2.567
848.2	2.417
848.4	2.419
848.6	2.457
848.8	2.599
849.0	2.706
849.2	2.645
849.4	2.614
849.6	2.547
849.8	2.562
850.0	2.731

