Sample:	'20211010A(EM)
File name:	G-CDS-CHO-yuan-S2- new.FDS
Run date:	'09:22:14, 03/23/2023
Operator:	Administrator
Comment:	'

Instrument
Model:	F-4700 FL Spectrophotometer
Serial number:	2019-001
ROM Version:	5J24010 00

Instrument parameters
Measurement type:	Wavelength scan
Scan mode:	Emission
Data mode:	Fluorescence
EX WL:	400.0 nm
EM  Start WL:	420.0 nm
EM  End WL:	850.0 nm
Scan speed:	1200 nm/min
Delay:	0.0 s
EX Slit:	10.0 nm
EM Slit:	10.0 nm
PMT Voltage:	465 V
Response:	0.002 s
Corrected spectra:	Off
Shutter control:	On

Processing performed
Savitsky-Golay smoothed
Smoothing order:	3
Number of points:	7
Number of times:	1

Peak integration
Integration method:	Rectangular
Sensitivity:	1
Threshold:	1.000

Peaks
No.	Start(nm)	Apex(nm)	End(nm)	Height(Data)	Valley(nm)	Valley(Data)
1	420.0	551.8	779.2	7172	779.2	10.13
2	779.2	803.8	850.0	90.62	850.0	2.287

Data points
nm	Data
420.0	30.58
420.2	31.02
420.4	31.08
420.6	31.05
420.8	31.59
421.0	31.88
421.2	32.08
421.4	32.66
421.6	33.11
421.8	33.09
422.0	33.15
422.2	33.08
422.4	33.24
422.6	33.67
422.8	33.97
423.0	34.23
423.2	34.29
423.4	34.45
423.6	34.77
423.8	35.10
424.0	35.20
424.2	35.23
424.4	35.69
424.6	35.73
424.8	35.82
425.0	36.01
425.2	35.96
425.4	36.20
425.6	36.80
425.8	37.08
426.0	37.02
426.2	37.02
426.4	36.82
426.6	37.06
426.8	37.27
427.0	37.80
427.2	38.11
427.4	38.45
427.6	38.98
427.8	39.00
428.0	39.06
428.2	39.08
428.4	39.22
428.6	39.50
428.8	40.06
429.0	40.29
429.2	40.85
429.4	40.61
429.6	40.52
429.8	41.06
430.0	41.24
430.2	41.54
430.4	41.86
430.6	41.93
430.8	42.69
431.0	43.75
431.2	44.01
431.4	44.07
431.6	43.86
431.8	43.63
432.0	43.94
432.2	44.08
432.4	44.25
432.6	44.79
432.8	45.19
433.0	45.46
433.2	45.78
433.4	46.03
433.6	46.17
433.8	46.48
434.0	46.56
434.2	46.97
434.4	47.15
434.6	47.62
434.8	48.13
435.0	48.72
435.2	49.17
435.4	49.67
435.6	49.98
435.8	50.24
436.0	50.57
436.2	51.16
436.4	51.34
436.6	51.66
436.8	52.30
437.0	52.61
437.2	53.17
437.4	54.05
437.6	54.40
437.8	54.99
438.0	55.29
438.2	55.44
438.4	55.83
438.6	56.37
438.8	56.82
439.0	57.59
439.2	57.91
439.4	58.08
439.6	58.30
439.8	58.48
440.0	59.11
440.2	60.47
440.4	61.29
440.6	61.34
440.8	61.77
441.0	62.55
441.2	63.42
441.4	64.75
441.6	65.84
441.8	66.00
442.0	66.28
442.2	67.05
442.4	66.79
442.6	66.95
442.8	67.83
443.0	68.73
443.2	69.44
443.4	70.65
443.6	71.28
443.8	72.14
444.0	72.78
444.2	73.54
444.4	73.87
444.6	74.59
444.8	75.74
445.0	76.85
445.2	77.77
445.4	78.61
445.6	79.46
445.8	80.21
446.0	80.83
446.2	81.90
446.4	82.79
446.6	83.74
446.8	85.01
447.0	86.13
447.2	86.74
447.4	87.86
447.6	88.10
447.8	88.58
448.0	89.14
448.2	90.22
448.4	91.26
448.6	92.34
448.8	93.15
449.0	94.23
449.2	94.97
449.4	96.01
449.6	96.50
449.8	97.43
450.0	98.91
450.2	100.5
450.4	101.1
450.6	102.0
450.8	102.4
451.0	103.3
451.2	105.0
451.4	105.8
451.6	106.0
451.8	106.7
452.0	107.5
452.2	108.2
452.4	109.8
452.6	110.4
452.8	111.2
453.0	112.5
453.2	113.4
453.4	114.1
453.6	114.6
453.8	114.7
454.0	115.4
454.2	117.1
454.4	118.7
454.6	120.3
454.8	120.7
455.0	120.8
455.2	120.5
455.4	120.7
455.6	121.8
455.8	123.0
456.0	124.1
456.2	125.7
456.4	125.9
456.6	126.5
456.8	127.4
457.0	127.8
457.2	128.2
457.4	129.2
457.6	129.9
457.8	130.6
458.0	131.6
458.2	131.6
458.4	131.7
458.6	131.8
458.8	132.2
459.0	132.8
459.2	133.9
459.4	134.4
459.6	134.9
459.8	134.8
460.0	135.1
460.2	135.7
460.4	136.1
460.6	137.2
460.8	137.3
461.0	137.6
461.2	137.7
461.4	138.1
461.6	138.4
461.8	139.1
462.0	139.6
462.2	140.4
462.4	140.4
462.6	140.1
462.8	140.2
463.0	140.9
463.2	141.7
463.4	142.7
463.6	142.7
463.8	142.3
464.0	142.7
464.2	143.9
464.4	144.4
464.6	145.5
464.8	145.6
465.0	145.6
465.2	145.6
465.4	146.1
465.6	146.2
465.8	146.9
466.0	147.9
466.2	148.2
466.4	148.8
466.6	149.9
466.8	150.0
467.0	150.0
467.2	150.5
467.4	151.3
467.6	151.9
467.8	152.7
468.0	152.9
468.2	153.2
468.4	153.9
468.6	154.9
468.8	155.7
469.0	156.0
469.2	156.7
469.4	158.3
469.6	159.8
469.8	160.8
470.0	161.6
470.2	162.1
470.4	163.0
470.6	164.3
470.8	165.4
471.0	166.4
471.2	166.8
471.4	167.3
471.6	168.5
471.8	169.7
472.0	170.7
472.2	172.3
472.4	174.4
472.6	176.0
472.8	178.0
473.0	180.3
473.2	181.8
473.4	182.8
473.6	184.0
473.8	184.9
474.0	185.9
474.2	188.0
474.4	189.5
474.6	191.6
474.8	193.5
475.0	195.3
475.2	197.2
475.4	199.7
475.6	202.2
475.8	204.8
476.0	206.6
476.2	208.2
476.4	210.1
476.6	212.8
476.8	216.2
477.0	219.6
477.2	221.3
477.4	223.0
477.6	225.6
477.8	227.5
478.0	230.5
478.2	233.5
478.4	236.2
478.6	238.2
478.8	241.5
479.0	244.0
479.2	247.2
479.4	250.1
479.6	253.5
479.8	256.8
480.0	260.2
480.2	265.0
480.4	267.4
480.6	269.9
480.8	272.9
481.0	276.7
481.2	281.3
481.4	287.0
481.6	290.2
481.8	293.9
482.0	297.3
482.2	301.5
482.4	305.0
482.6	309.4
482.8	313.3
483.0	318.1
483.2	322.7
483.4	327.5
483.6	330.8
483.8	336.1
484.0	340.5
484.2	345.7
484.4	350.8
484.6	355.3
484.8	360.6
485.0	365.2
485.2	369.7
485.4	375.3
485.6	380.9
485.8	387.5
486.0	393.7
486.2	399.1
486.4	405.0
486.6	411.1
486.8	415.5
487.0	422.1
487.2	427.7
487.4	435.3
487.6	442.3
487.8	449.4
488.0	455.0
488.2	462.4
488.4	469.3
488.6	476.1
488.8	483.2
489.0	490.2
489.2	496.1
489.4	504.0
489.6	510.2
489.8	517.0
490.0	524.7
490.2	533.0
490.4	541.4
490.6	552.6
490.8	561.3
491.0	571.0
491.2	578.3
491.4	585.9
491.6	593.6
491.8	603.0
492.0	613.1
492.2	624.1
492.4	633.7
492.6	642.6
492.8	652.0
493.0	661.5
493.2	672.6
493.4	682.8
493.6	693.1
493.8	702.8
494.0	713.6
494.2	725.6
494.4	735.5
494.6	746.6
494.8	758.7
495.0	770.9
495.2	780.8
495.4	793.1
495.6	803.5
495.8	816.7
496.0	830.3
496.2	845.6
496.4	857.6
496.6	871.4
496.8	884.0
497.0	896.2
497.2	909.8
497.4	926.3
497.6	941.3
497.8	955.4
498.0	968.0
498.2	981.1
498.4	996.8
498.6	1012
498.8	1028
499.0	1045
499.2	1062
499.4	1077
499.6	1092
499.8	1106
500.0	1123
500.2	1142
500.4	1161
500.6	1180
500.8	1196
501.0	1213
501.2	1231
501.4	1250
501.6	1269
501.8	1290
502.0	1310
502.2	1330
502.4	1350
502.6	1369
502.8	1387
503.0	1410
503.2	1431
503.4	1451
503.6	1470
503.8	1488
504.0	1507
504.2	1531
504.4	1554
504.6	1578
504.8	1603
505.0	1626
505.2	1648
505.4	1671
505.6	1691
505.8	1715
506.0	1739
506.2	1760
506.4	1784
506.6	1809
506.8	1835
507.0	1862
507.2	1886
507.4	1909
507.6	1933
507.8	1959
508.0	1985
508.2	2013
508.4	2039
508.6	2065
508.8	2089
509.0	2114
509.2	2145
509.4	2177
509.6	2205
509.8	2231
510.0	2256
510.2	2280
510.4	2310
510.6	2343
510.8	2372
511.0	2404
511.2	2437
511.4	2466
511.6	2493
511.8	2523
512.0	2548
512.2	2578
512.4	2609
512.6	2638
512.8	2669
513.0	2699
513.2	2724
513.4	2752
513.6	2777
513.8	2811
514.0	2846
514.2	2881
514.4	2912
514.6	2944
514.8	2974
515.0	3010
515.2	3045
515.4	3086
515.6	3118
515.8	3149
516.0	3178
516.2	3210
516.4	3241
516.6	3275
516.8	3304
517.0	3336
517.2	3373
517.4	3410
517.6	3443
517.8	3474
518.0	3497
518.2	3529
518.4	3564
518.6	3596
518.8	3632
519.0	3670
519.2	3701
519.4	3737
519.6	3764
519.8	3794
520.0	3832
520.2	3876
520.4	3916
520.6	3951
520.8	3977
521.0	4006
521.2	4038
521.4	4077
521.6	4113
521.8	4150
522.0	4184
522.2	4216
522.4	4249
522.6	4284
522.8	4310
523.0	4338
523.2	4369
523.4	4403
523.6	4443
523.8	4484
524.0	4518
524.2	4554
524.4	4589
524.6	4619
524.8	4651
525.0	4681
525.2	4714
525.4	4751
525.6	4784
525.8	4815
526.0	4843
526.2	4871
526.4	4899
526.6	4934
526.8	4972
527.0	5005
527.2	5032
527.4	5060
527.6	5084
527.8	5115
528.0	5150
528.2	5188
528.4	5219
528.6	5243
528.8	5268
529.0	5295
529.2	5329
529.4	5365
529.6	5395
529.8	5425
530.0	5453
530.2	5485
530.4	5519
530.6	5543
530.8	5571
531.0	5603
531.2	5636
531.4	5665
531.6	5691
531.8	5710
532.0	5731
532.2	5756
532.4	5783
532.6	5804
532.8	5832
533.0	5855
533.2	5879
533.4	5909
533.6	5928
533.8	5953
534.0	5980
534.2	6012
534.4	6043
534.6	6074
534.8	6098
535.0	6125
535.2	6153
535.4	6186
535.6	6209
535.8	6231
536.0	6250
536.2	6268
536.4	6294
536.6	6319
536.8	6340
537.0	6362
537.2	6379
537.4	6398
537.6	6415
537.8	6433
538.0	6453
538.2	6472
538.4	6491
538.6	6510
538.8	6535
539.0	6556
539.2	6578
539.4	6599
539.6	6612
539.8	6628
540.0	6645
540.2	6656
540.4	6668
540.6	6684
540.8	6703
541.0	6727
541.2	6741
541.4	6761
541.6	6772
541.8	6789
542.0	6807
542.2	6826
542.4	6837
542.6	6847
542.8	6855
543.0	6868
543.2	6883
543.4	6895
543.6	6908
543.8	6919
544.0	6929
544.2	6942
544.4	6957
544.6	6960
544.8	6970
545.0	6978
545.2	6984
545.4	7000
545.6	7014
545.8	7025
546.0	7034
546.2	7044
546.4	7051
546.6	7061
546.8	7072
547.0	7078
547.2	7087
547.4	7095
547.6	7099
547.8	7109
548.0	7119
548.2	7128
548.4	7130
548.6	7126
548.8	7124
549.0	7130
549.2	7140
549.4	7148
549.6	7142
549.8	7144
550.0	7144
550.2	7146
550.4	7154
550.6	7160
550.8	7165
551.0	7169
551.2	7168
551.4	7169
551.6	7171
551.8	7172
552.0	7164
552.2	7164
552.4	7163
552.6	7165
552.8	7170
553.0	7171
553.2	7162
553.4	7163
553.6	7158
553.8	7158
554.0	7155
554.2	7154
554.4	7152
554.6	7150
554.8	7151
555.0	7152
555.2	7149
555.4	7150
555.6	7146
555.8	7136
556.0	7122
556.2	7114
556.4	7115
556.6	7115
556.8	7116
557.0	7109
557.2	7098
557.4	7098
557.6	7101
557.8	7096
558.0	7094
558.2	7088
558.4	7076
558.6	7065
558.8	7053
559.0	7040
559.2	7030
559.4	7021
559.6	7010
559.8	7004
560.0	6999
560.2	6995
560.4	6989
560.6	6978
560.8	6966
561.0	6957
561.2	6950
561.4	6945
561.6	6938
561.8	6931
562.0	6922
562.2	6910
562.4	6896
562.6	6881
562.8	6868
563.0	6857
563.2	6845
563.4	6837
563.6	6825
563.8	6814
564.0	6807
564.2	6794
564.4	6782
564.6	6768
564.8	6756
565.0	6739
565.2	6727
565.4	6711
565.6	6698
565.8	6689
566.0	6679
566.2	6663
566.4	6646
566.6	6630
566.8	6620
567.0	6613
567.2	6605
567.4	6597
567.6	6583
567.8	6569
568.0	6555
568.2	6533
568.4	6517
568.6	6499
568.8	6489
569.0	6479
569.2	6466
569.4	6449
569.6	6431
569.8	6413
570.0	6399
570.2	6387
570.4	6376
570.6	6362
570.8	6342
571.0	6325
571.2	6308
571.4	6297
571.6	6281
571.8	6263
572.0	6245
572.2	6229
572.4	6218
572.6	6198
572.8	6174
573.0	6153
573.2	6139
573.4	6128
573.6	6111
573.8	6091
574.0	6070
574.2	6048
574.4	6040
574.6	6029
574.8	6014
575.0	6003
575.2	5985
575.4	5970
575.6	5953
575.8	5943
576.0	5925
576.2	5908
576.4	5889
576.6	5867
576.8	5842
577.0	5830
577.2	5812
577.4	5792
577.6	5773
577.8	5750
578.0	5727
578.2	5705
578.4	5691
578.6	5676
578.8	5662
579.0	5652
579.2	5639
579.4	5624
579.6	5606
579.8	5589
580.0	5569
580.2	5552
580.4	5538
580.6	5524
580.8	5503
581.0	5485
581.2	5461
581.4	5442
581.6	5424
581.8	5407
582.0	5392
582.2	5376
582.4	5357
582.6	5335
582.8	5312
583.0	5290
583.2	5269
583.4	5254
583.6	5242
583.8	5225
584.0	5207
584.2	5184
584.4	5166
584.6	5152
584.8	5142
585.0	5129
585.2	5115
585.4	5094
585.6	5073
585.8	5051
586.0	5035
586.2	5016
586.4	5003
586.6	4984
586.8	4962
587.0	4942
587.2	4921
587.4	4900
587.6	4880
587.8	4859
588.0	4844
588.2	4828
588.4	4811
588.6	4795
588.8	4777
589.0	4759
589.2	4744
589.4	4728
589.6	4713
589.8	4698
590.0	4682
590.2	4663
590.4	4642
590.6	4621
590.8	4604
591.0	4583
591.2	4558
591.4	4539
591.6	4519
591.8	4505
592.0	4494
592.2	4474
592.4	4455
592.6	4442
592.8	4428
593.0	4416
593.2	4400
593.4	4377
593.6	4357
593.8	4341
594.0	4328
594.2	4315
594.4	4298
594.6	4277
594.8	4258
595.0	4238
595.2	4220
595.4	4202
595.6	4185
595.8	4168
596.0	4152
596.2	4131
596.4	4114
596.6	4096
596.8	4079
597.0	4063
597.2	4046
597.4	4031
597.6	4014
597.8	3995
598.0	3979
598.2	3964
598.4	3952
598.6	3937
598.8	3916
599.0	3896
599.2	3876
599.4	3859
599.6	3849
599.8	3834
600.0	3819
600.2	3802
600.4	3782
600.6	3760
600.8	3745
601.0	3728
601.2	3718
601.4	3711
601.6	3699
601.8	3678
602.0	3655
602.2	3632
602.4	3611
602.6	3600
602.8	3587
603.0	3573
603.2	3555
603.4	3537
603.6	3516
603.8	3502
604.0	3490
604.2	3478
604.4	3460
604.6	3441
604.8	3423
605.0	3408
605.2	3395
605.4	3379
605.6	3359
605.8	3342
606.0	3325
606.2	3310
606.4	3297
606.6	3281
606.8	3263
607.0	3248
607.2	3227
607.4	3215
607.6	3201
607.8	3188
608.0	3167
608.2	3145
608.4	3124
608.6	3115
608.8	3104
609.0	3099
609.2	3083
609.4	3066
609.6	3047
609.8	3030
610.0	3013
610.2	2995
610.4	2978
610.6	2963
610.8	2949
611.0	2940
611.2	2928
611.4	2912
611.6	2898
611.8	2882
612.0	2865
612.2	2850
612.4	2834
612.6	2818
612.8	2806
613.0	2797
613.2	2780
613.4	2768
613.6	2752
613.8	2735
614.0	2725
614.2	2709
614.4	2691
614.6	2677
614.8	2660
615.0	2649
615.2	2635
615.4	2621
615.6	2610
615.8	2598
616.0	2588
616.2	2577
616.4	2559
616.6	2543
616.8	2527
617.0	2515
617.2	2501
617.4	2489
617.6	2478
617.8	2463
618.0	2446
618.2	2431
618.4	2417
618.6	2406
618.8	2395
619.0	2381
619.2	2363
619.4	2349
619.6	2337
619.8	2323
620.0	2311
620.2	2301
620.4	2288
620.6	2277
620.8	2264
621.0	2253
621.2	2242
621.4	2230
621.6	2219
621.8	2204
622.0	2193
622.2	2179
622.4	2165
622.6	2148
622.8	2134
623.0	2119
623.2	2110
623.4	2096
623.6	2083
623.8	2074
624.0	2062
624.2	2049
624.4	2041
624.6	2031
624.8	2018
625.0	2009
625.2	1995
625.4	1983
625.6	1975
625.8	1965
626.0	1953
626.2	1940
626.4	1927
626.6	1915
626.8	1904
627.0	1890
627.2	1878
627.4	1866
627.6	1854
627.8	1843
628.0	1833
628.2	1821
628.4	1812
628.6	1802
628.8	1791
629.0	1781
629.2	1769
629.4	1756
629.6	1745
629.8	1736
630.0	1729
630.2	1717
630.4	1706
630.6	1696
630.8	1685
631.0	1677
631.2	1668
631.4	1655
631.6	1645
631.8	1636
632.0	1625
632.2	1616
632.4	1604
632.6	1594
632.8	1584
633.0	1577
633.2	1567
633.4	1557
633.6	1544
633.8	1533
634.0	1523
634.2	1517
634.4	1510
634.6	1501
634.8	1491
635.0	1485
635.2	1478
635.4	1470
635.6	1460
635.8	1447
636.0	1437
636.2	1426
636.4	1417
636.6	1410
636.8	1402
637.0	1393
637.2	1384
637.4	1375
637.6	1367
637.8	1360
638.0	1351
638.2	1341
638.4	1331
638.6	1324
638.8	1316
639.0	1311
639.2	1302
639.4	1294
639.6	1285
639.8	1275
640.0	1263
640.2	1256
640.4	1249
640.6	1242
640.8	1236
641.0	1227
641.2	1218
641.4	1214
641.6	1206
641.8	1198
642.0	1190
642.2	1182
642.4	1175
642.6	1168
642.8	1159
643.0	1151
643.2	1143
643.4	1135
643.6	1129
643.8	1121
644.0	1112
644.2	1106
644.4	1100
644.6	1092
644.8	1085
645.0	1077
645.2	1069
645.4	1065
645.6	1061
645.8	1055
646.0	1048
646.2	1040
646.4	1033
646.6	1027
646.8	1021
647.0	1016
647.2	1008
647.4	1001
647.6	993.5
647.8	985.7
648.0	980.4
648.2	975.0
648.4	966.8
648.6	960.1
648.8	952.8
649.0	946.0
649.2	939.5
649.4	933.2
649.6	926.2
649.8	920.6
650.0	916.6
650.2	910.9
650.4	906.1
650.6	900.4
650.8	893.8
651.0	887.4
651.2	882.3
651.4	873.5
651.6	867.8
651.8	860.2
652.0	854.0
652.2	848.4
652.4	844.4
652.6	839.3
652.8	835.7
653.0	829.8
653.2	823.6
653.4	817.1
653.6	812.0
653.8	806.8
654.0	802.9
654.2	796.6
654.4	791.3
654.6	785.2
654.8	779.9
655.0	774.5
655.2	769.7
655.4	763.7
655.6	758.9
655.8	752.9
656.0	747.0
656.2	742.1
656.4	739.0
656.6	735.6
656.8	731.7
657.0	727.0
657.2	720.7
657.4	715.3
657.6	711.1
657.8	707.8
658.0	704.3
658.2	699.4
658.4	694.6
658.6	687.6
658.8	679.5
659.0	673.6
659.2	669.4
659.4	666.0
659.6	663.9
659.8	659.3
660.0	655.2
660.2	651.0
660.4	645.0
660.6	640.0
660.8	635.5
661.0	630.7
661.2	627.3
661.4	623.7
661.6	618.4
661.8	613.8
662.0	610.6
662.2	606.8
662.4	603.6
662.6	598.1
662.8	592.8
663.0	587.5
663.2	583.7
663.4	580.8
663.6	578.5
663.8	573.5
664.0	571.4
664.2	568.0
664.4	563.8
664.6	559.2
664.8	553.4
665.0	548.6
665.2	547.1
665.4	545.0
665.6	542.0
665.8	537.6
666.0	532.3
666.2	527.4
666.4	523.2
666.6	520.9
666.8	517.6
667.0	513.5
667.2	509.9
667.4	507.4
667.6	503.7
667.8	501.5
668.0	498.2
668.2	493.8
668.4	489.2
668.6	485.8
668.8	482.4
669.0	478.5
669.2	475.4
669.4	472.7
669.6	469.6
669.8	465.8
670.0	462.9
670.2	458.6
670.4	454.8
670.6	451.8
670.8	449.6
671.0	446.2
671.2	444.7
671.4	441.8
671.6	438.4
671.8	435.3
672.0	432.1
672.2	428.5
672.4	426.1
672.6	423.2
672.8	419.9
673.0	417.9
673.2	414.5
673.4	410.8
673.6	406.5
673.8	403.0
674.0	400.3
674.2	398.0
674.4	395.0
674.6	391.2
674.8	387.4
675.0	384.6
675.2	382.9
675.4	381.0
675.6	378.6
675.8	375.8
676.0	372.8
676.2	369.8
676.4	367.7
676.6	365.1
676.8	362.7
677.0	359.7
677.2	357.2
677.4	354.7
677.6	353.2
677.8	350.8
678.0	348.9
678.2	345.1
678.4	341.9
678.6	339.4
678.8	337.1
679.0	333.6
679.2	331.7
679.4	329.1
679.6	326.6
679.8	325.1
680.0	323.5
680.2	320.4
680.4	318.5
680.6	314.8
680.8	311.1
681.0	308.6
681.2	307.2
681.4	305.9
681.6	305.3
681.8	302.8
682.0	299.5
682.2	296.5
682.4	293.8
682.6	291.3
682.8	289.8
683.0	289.1
683.2	287.4
683.4	285.3
683.6	283.7
683.8	281.7
684.0	278.7
684.2	276.5
684.4	273.1
684.6	270.7
684.8	269.3
685.0	268.8
685.2	267.6
685.4	265.9
685.6	263.7
685.8	260.3
686.0	257.4
686.2	255.4
686.4	253.8
686.6	252.6
686.8	252.1
687.0	250.1
687.2	248.6
687.4	246.4
687.6	244.3
687.8	241.5
688.0	239.6
688.2	238.0
688.4	236.5
688.6	235.0
688.8	234.1
689.0	231.5
689.2	230.1
689.4	228.4
689.6	226.4
689.8	224.8
690.0	223.7
690.2	222.1
690.4	220.7
690.6	219.1
690.8	216.3
691.0	215.7
691.2	214.8
691.4	214.1
691.6	212.6
691.8	211.1
692.0	208.2
692.2	207.0
692.4	205.0
692.6	203.8
692.8	202.0
693.0	201.4
693.2	200.1
693.4	198.8
693.6	196.8
693.8	195.4
694.0	194.2
694.2	192.8
694.4	191.2
694.6	189.8
694.8	187.7
695.0	186.7
695.2	186.1
695.4	184.7
695.6	183.9
695.8	182.1
696.0	180.6
696.2	179.3
696.4	178.7
696.6	178.4
696.8	178.0
697.0	176.5
697.2	175.0
697.4	172.6
697.6	171.4
697.8	170.0
698.0	168.8
698.2	168.2
698.4	167.6
698.6	166.6
698.8	165.6
699.0	164.1
699.2	161.9
699.4	160.9
699.6	159.4
699.8	158.7
700.0	157.7
700.2	156.9
700.4	155.6
700.6	155.8
700.8	154.5
701.0	153.5
701.2	151.5
701.4	150.8
701.6	149.8
701.8	150.6
702.0	149.5
702.2	147.8
702.4	146.1
702.6	145.4
702.8	144.2
703.0	144.6
703.2	143.6
703.4	143.0
703.6	142.9
703.8	141.4
704.0	139.1
704.2	138.1
704.4	137.3
704.6	136.3
704.8	135.6
705.0	134.4
705.2	133.1
705.4	132.5
705.6	132.4
705.8	131.0
706.0	129.7
706.2	128.9
706.4	127.6
706.6	127.3
706.8	127.3
707.0	126.3
707.2	125.3
707.4	125.0
707.6	123.6
707.8	123.1
708.0	122.7
708.2	121.7
708.4	120.8
708.6	119.9
708.8	118.9
709.0	118.3
709.2	118.1
709.4	117.7
709.6	116.8
709.8	115.7
710.0	114.9
710.2	114.0
710.4	114.0
710.6	113.8
710.8	113.0
711.0	111.9
711.2	110.5
711.4	109.1
711.6	108.6
711.8	108.3
712.0	107.1
712.2	105.9
712.4	105.2
712.6	104.7
712.8	104.3
713.0	104.3
713.2	103.4
713.4	102.3
713.6	101.3
713.8	100.5
714.0	99.39
714.2	99.09
714.4	99.03
714.6	98.52
714.8	97.72
715.0	97.35
715.2	96.29
715.4	95.78
715.6	95.44
715.8	94.34
716.0	93.38
716.2	92.42
716.4	91.68
716.6	91.17
716.8	91.39
717.0	90.99
717.2	90.30
717.4	89.16
717.6	88.02
717.8	87.28
718.0	86.86
718.2	86.30
718.4	85.56
718.6	85.05
718.8	84.08
719.0	83.17
719.2	82.47
719.4	81.97
719.6	81.91
719.8	82.23
720.0	81.64
720.2	80.74
720.4	79.89
720.6	78.67
720.8	77.90
721.0	77.68
721.2	76.91
721.4	76.99
721.6	76.35
721.8	75.34
722.0	74.41
722.2	74.25
722.4	73.70
722.6	73.85
722.8	73.02
723.0	72.01
723.2	71.21
723.4	70.71
723.6	70.41
723.8	70.06
724.0	69.02
724.2	68.25
724.4	67.83
724.6	67.53
724.8	67.52
725.0	66.60
725.2	65.75
725.4	65.03
725.6	64.41
725.8	64.57
726.0	64.59
726.2	64.02
726.4	63.55
726.6	62.90
726.8	61.92
727.0	61.57
727.2	61.28
727.4	61.14
727.6	60.46
727.8	59.64
728.0	58.68
728.2	58.06
728.4	57.45
728.6	57.00
728.8	56.62
729.0	56.23
729.2	55.97
729.4	55.64
729.6	54.90
729.8	54.42
730.0	53.95
730.2	53.62
730.4	53.80
730.6	53.70
730.8	53.35
731.0	53.41
731.2	52.72
731.4	52.13
731.6	52.00
731.8	51.25
732.0	50.43
732.2	50.03
732.4	49.56
732.6	49.10
732.8	48.92
733.0	48.66
733.2	47.93
733.4	47.34
733.6	47.10
733.8	46.55
734.0	45.90
734.2	45.93
734.4	45.62
734.6	45.18
734.8	45.18
735.0	44.96
735.2	44.67
735.4	44.41
735.6	43.85
735.8	43.28
736.0	43.06
736.2	42.78
736.4	42.77
736.6	42.45
736.8	41.99
737.0	41.81
737.2	41.66
737.4	41.10
737.6	40.63
737.8	40.16
738.0	39.80
738.2	39.53
738.4	39.14
738.6	38.58
738.8	38.38
739.0	38.25
739.2	37.97
739.4	37.89
739.6	37.40
739.8	37.16
740.0	37.43
740.2	37.29
740.4	36.78
740.6	36.47
740.8	35.72
741.0	35.33
741.2	35.42
741.4	35.32
741.6	35.41
741.8	35.11
742.0	34.62
742.2	33.97
742.4	33.62
742.6	33.57
742.8	33.84
743.0	33.84
743.2	33.65
743.4	33.10
743.6	32.78
743.8	32.27
744.0	32.16
744.2	31.97
744.4	31.97
744.6	31.85
744.8	31.51
745.0	30.89
745.2	30.58
745.4	30.28
745.6	30.66
745.8	30.68
746.0	30.37
746.2	30.21
746.4	29.58
746.6	29.06
746.8	28.81
747.0	28.25
747.2	27.83
747.4	27.68
747.6	27.37
747.8	27.26
748.0	27.40
748.2	27.58
748.4	27.53
748.6	27.38
748.8	26.86
749.0	26.55
749.2	26.53
749.4	26.20
749.6	25.93
749.8	25.67
750.0	25.28
750.2	25.39
750.4	25.50
750.6	25.25
750.8	25.08
751.0	24.97
751.2	24.88
751.4	24.77
751.6	24.58
751.8	24.15
752.0	23.87
752.2	23.85
752.4	23.84
752.6	23.73
752.8	23.66
753.0	23.39
753.2	23.36
753.4	23.07
753.6	22.75
753.8	22.14
754.0	21.79
754.2	21.84
754.4	22.08
754.6	22.09
754.8	21.91
755.0	21.49
755.2	21.23
755.4	21.18
755.6	21.33
755.8	21.04
756.0	20.83
756.2	20.66
756.4	20.44
756.6	20.50
756.8	20.27
757.0	19.84
757.2	19.71
757.4	19.65
757.6	19.60
757.8	19.75
758.0	19.20
758.2	18.90
758.4	18.61
758.6	18.70
758.8	18.69
759.0	18.89
759.2	18.62
759.4	18.31
759.6	18.07
759.8	17.78
760.0	17.57
760.2	17.60
760.4	17.66
760.6	17.39
760.8	17.28
761.0	16.98
761.2	16.96
761.4	16.96
761.6	17.12
761.8	16.69
762.0	16.35
762.2	16.43
762.4	16.53
762.6	16.70
762.8	16.58
763.0	16.12
763.2	15.75
763.4	15.71
763.6	15.62
763.8	15.62
764.0	15.59
764.2	15.46
764.4	15.43
764.6	15.27
764.8	15.17
765.0	14.94
765.2	15.00
765.4	14.86
765.6	14.66
765.8	14.44
766.0	14.42
766.2	14.27
766.4	14.25
766.6	14.29
766.8	14.10
767.0	14.05
767.2	14.07
767.4	13.88
767.6	13.86
767.8	13.70
768.0	13.57
768.2	13.43
768.4	13.22
768.6	13.11
768.8	13.23
769.0	13.13
769.2	13.20
769.4	13.17
769.6	13.00
769.8	12.85
770.0	12.70
770.2	12.49
770.4	12.26
770.6	12.37
770.8	12.26
771.0	12.06
771.2	12.19
771.4	12.20
771.6	12.14
771.8	12.20
772.0	12.13
772.2	11.91
772.4	11.96
772.6	11.77
772.8	11.54
773.0	11.37
773.2	11.33
773.4	11.38
773.6	11.46
773.8	11.47
774.0	11.33
774.2	11.30
774.4	11.36
774.6	11.51
774.8	11.16
775.0	10.89
775.2	10.83
775.4	10.69
775.6	10.76
775.8	10.81
776.0	10.58
776.2	10.41
776.4	10.58
776.6	10.45
776.8	10.36
777.0	10.53
777.2	10.70
777.4	10.58
777.6	10.73
777.8	10.60
778.0	10.29
778.2	10.33
778.4	10.39
778.6	10.33
778.8	10.37
779.0	10.19
779.2	10.13
779.4	10.34
779.6	10.79
779.8	10.99
780.0	10.97
780.2	10.93
780.4	10.91
780.6	10.99
780.8	11.17
781.0	11.35
781.2	11.44
781.4	11.48
781.6	11.46
781.8	11.64
782.0	11.95
782.2	12.22
782.4	12.34
782.6	12.59
782.8	12.77
783.0	13.16
783.2	13.73
783.4	14.00
783.6	14.24
783.8	14.66
784.0	14.88
784.2	15.55
784.4	16.05
784.6	16.33
784.8	16.73
785.0	17.38
785.2	18.01
785.4	19.05
785.6	19.52
785.8	19.99
786.0	20.68
786.2	21.34
786.4	22.17
786.6	23.02
786.8	23.58
787.0	24.45
787.2	25.49
787.4	26.39
787.6	27.18
787.8	27.88
788.0	28.55
788.2	29.82
788.4	30.80
788.6	32.05
788.8	32.87
789.0	33.61
789.2	34.70
789.4	36.00
789.6	37.15
789.8	38.25
790.0	39.29
790.2	40.43
790.4	41.31
790.6	42.11
790.8	43.29
791.0	44.58
791.2	46.42
791.4	47.92
791.6	48.81
791.8	49.76
792.0	50.73
792.2	51.75
792.4	53.03
792.6	53.66
792.8	54.78
793.0	56.34
793.2	57.78
793.4	59.34
793.6	60.92
793.8	61.99
794.0	63.44
794.2	64.42
794.4	65.26
794.6	66.42
794.8	67.28
795.0	68.13
795.2	69.23
795.4	69.73
795.6	70.66
795.8	72.00
796.0	72.97
796.2	74.23
796.4	75.31
796.6	76.01
796.8	76.85
797.0	78.49
797.2	79.16
797.4	79.89
797.6	80.65
797.8	81.06
798.0	82.05
798.2	83.21
798.4	83.27
798.6	83.69
798.8	84.77
799.0	85.70
799.2	86.41
799.4	86.62
799.6	86.69
799.8	86.89
800.0	87.15
800.2	87.34
800.4	87.46
800.6	87.88
800.8	88.86
801.0	89.64
801.2	89.64
801.4	88.97
801.6	88.64
801.8	88.92
802.0	89.51
802.2	90.03
802.4	89.92
802.6	89.38
802.8	89.24
803.0	89.80
803.2	89.94
803.4	90.18
803.6	90.50
803.8	90.62
804.0	90.15
804.2	89.69
804.4	88.84
804.6	88.22
804.8	87.88
805.0	87.54
805.2	86.77
805.4	85.93
805.6	85.28
805.8	84.70
806.0	83.94
806.2	84.13
806.4	83.93
806.6	83.26
806.8	82.27
807.0	80.74
807.2	79.30
807.4	79.00
807.6	78.47
807.8	77.76
808.0	76.91
808.2	75.85
808.4	75.13
808.6	75.22
808.8	74.75
809.0	73.46
809.2	71.91
809.4	70.75
809.6	69.94
809.8	68.95
810.0	68.06
810.2	67.15
810.4	65.96
810.6	65.22
810.8	64.48
811.0	63.01
811.2	62.17
811.4	61.42
811.6	60.28
811.8	59.21
812.0	57.56
812.2	56.11
812.4	55.25
812.6	54.40
812.8	53.41
813.0	52.61
813.2	51.24
813.4	50.13
813.6	49.09
813.8	48.02
814.0	46.42
814.2	45.06
814.4	43.69
814.6	42.65
814.8	41.53
815.0	40.62
815.2	39.46
815.4	38.55
815.6	37.55
815.8	36.63
816.0	35.74
816.2	34.82
816.4	33.90
816.6	32.80
816.8	31.48
817.0	30.55
817.2	29.92
817.4	29.30
817.6	28.56
817.8	27.51
818.0	26.20
818.2	25.43
818.4	24.48
818.6	23.59
818.8	22.76
819.0	21.94
819.2	21.34
819.4	20.82
819.6	20.09
819.8	19.25
820.0	18.24
820.2	17.54
820.4	16.98
820.6	16.32
820.8	15.71
821.0	14.90
821.2	14.22
821.4	13.86
821.6	13.37
821.8	12.70
822.0	12.14
822.2	11.55
822.4	11.29
822.6	10.95
822.8	10.44
823.0	9.936
823.2	9.600
823.4	9.352
823.6	9.044
823.8	8.532
824.0	8.019
824.2	7.684
824.4	7.467
824.6	7.414
824.8	7.214
825.0	7.125
825.2	7.074
825.4	6.760
825.6	6.458
825.8	6.189
826.0	5.846
826.2	5.649
826.4	5.608
826.6	5.425
826.8	5.345
827.0	5.158
827.2	5.005
827.4	4.779
827.6	4.728
827.8	4.747
828.0	4.653
828.2	4.395
828.4	4.371
828.6	4.310
828.8	4.187
829.0	4.134
829.2	3.931
829.4	3.742
829.6	3.884
829.8	4.058
830.0	3.992
830.2	3.834
830.4	3.672
830.6	3.448
830.8	3.392
831.0	3.481
831.2	3.532
831.4	3.585
831.6	3.613
831.8	3.645
832.0	3.643
832.2	3.616
832.4	3.637
832.6	3.600
832.8	3.396
833.0	3.339
833.2	3.217
833.4	3.123
833.6	3.167
833.8	3.158
834.0	3.216
834.2	3.357
834.4	3.366
834.6	3.336
834.8	3.177
835.0	3.043
835.2	2.979
835.4	3.044
835.6	2.963
835.8	3.023
836.0	3.024
836.2	3.027
836.4	3.117
836.6	3.130
836.8	3.012
837.0	3.016
837.2	3.005
837.4	2.905
837.6	2.910
837.8	2.768
838.0	2.722
838.2	2.732
838.4	2.741
838.6	2.835
838.8	2.897
839.0	2.826
839.2	2.893
839.4	2.907
839.6	2.874
839.8	2.885
840.0	2.881
840.2	2.736
840.4	2.690
840.6	2.637
840.8	2.675
841.0	2.694
841.2	2.701
841.4	2.749
841.6	2.756
841.8	2.677
842.0	2.656
842.2	2.615
842.4	2.551
842.6	2.591
842.8	2.649
843.0	2.613
843.2	2.609
843.4	2.641
843.6	2.598
843.8	2.552
844.0	2.508
844.2	2.482
844.4	2.613
844.6	2.732
844.8	2.714
845.0	2.644
845.2	2.489
845.4	2.321
845.6	2.326
845.8	2.365
846.0	2.443
846.2	2.510
846.4	2.554
846.6	2.457
846.8	2.424
847.0	2.518
847.2	2.553
847.4	2.512
847.6	2.407
847.8	2.370
848.0	2.381
848.2	2.438
848.4	2.425
848.6	2.346
848.8	2.322
849.0	2.472
849.2	2.582
849.4	2.556
849.6	2.440
849.8	2.328
850.0	2.287

