Sample:	'20211010A(EM)
File name:	G-CDS-CHO-yuan-S2- new.FDS
Run date:	'09:36:13, 03/23/2023
Operator:	Administrator
Comment:	'

Instrument
Model:	F-4700 FL Spectrophotometer
Serial number:	2019-001
ROM Version:	5J24010 00

Instrument parameters
Measurement type:	Wavelength scan
Scan mode:	Emission
Data mode:	Fluorescence
EX WL:	400.0 nm
EM  Start WL:	420.0 nm
EM  End WL:	850.0 nm
Scan speed:	1200 nm/min
Delay:	0.0 s
EX Slit:	10.0 nm
EM Slit:	10.0 nm
PMT Voltage:	430 V
Response:	0.002 s
Corrected spectra:	Off
Shutter control:	On

Processing performed
Savitsky-Golay smoothed
Smoothing order:	3
Number of points:	7
Number of times:	1

Peak integration
Integration method:	Rectangular
Sensitivity:	1
Threshold:	1.000

Peaks
No.	Start(nm)	Apex(nm)	End(nm)	Height(Data)	Valley(nm)	Valley(Data)
1	420.0	548.2	549.6	1887	549.6	1881
2	549.6	551.0	774.4	1888	774.4	4.090
3	774.4	803.0	850.0	256.1	850.0	3.094

Data points
nm	Data
420.0	149.0
420.2	150.7
420.4	151.4
420.6	151.6
420.8	151.4
421.0	152.0
421.2	151.8
421.4	151.5
421.6	152.0
421.8	151.4
422.0	151.3
422.2	152.4
422.4	153.0
422.6	153.8
422.8	154.5
423.0	154.6
423.2	154.6
423.4	154.8
423.6	154.6
423.8	154.1
424.0	154.3
424.2	155.0
424.4	156.0
424.6	157.0
424.8	157.2
425.0	157.2
425.2	157.2
425.4	157.5
425.6	157.9
425.8	158.1
426.0	158.8
426.2	159.1
426.4	158.9
426.6	159.3
426.8	159.5
427.0	159.7
427.2	161.0
427.4	161.6
427.6	161.5
427.8	162.1
428.0	162.0
428.2	162.0
428.4	162.6
428.6	163.2
428.8	162.8
429.0	163.1
429.2	163.3
429.4	163.1
429.6	163.1
429.8	163.8
430.0	163.7
430.2	164.4
430.4	164.7
430.6	164.7
430.8	165.0
431.0	165.8
431.2	166.0
431.4	166.7
431.6	166.4
431.8	166.6
432.0	167.4
432.2	168.3
432.4	168.3
432.6	169.2
432.8	169.4
433.0	169.9
433.2	170.2
433.4	170.3
433.6	170.1
433.8	170.7
434.0	171.4
434.2	171.6
434.4	171.7
434.6	171.8
434.8	172.1
435.0	172.5
435.2	172.9
435.4	173.0
435.6	173.9
435.8	174.5
436.0	175.1
436.2	175.2
436.4	175.5
436.6	175.6
436.8	176.3
437.0	177.2
437.2	178.1
437.4	178.9
437.6	179.2
437.8	178.7
438.0	179.4
438.2	180.4
438.4	180.9
438.6	181.5
438.8	181.4
439.0	181.1
439.2	181.7
439.4	181.8
439.6	181.9
439.8	181.9
440.0	182.8
440.2	183.7
440.4	185.0
440.6	185.9
440.8	186.3
441.0	186.8
441.2	187.3
441.4	187.9
441.6	188.8
441.8	189.4
442.0	190.0
442.2	191.0
442.4	191.5
442.6	192.2
442.8	192.6
443.0	192.6
443.2	192.9
443.4	193.5
443.6	195.0
443.8	196.6
444.0	197.6
444.2	198.4
444.4	198.8
444.6	198.8
444.8	199.6
445.0	199.6
445.2	199.2
445.4	200.5
445.6	201.9
445.8	203.0
446.0	204.4
446.2	205.4
446.4	206.1
446.6	207.4
446.8	208.5
447.0	208.9
447.2	209.4
447.4	210.3
447.6	211.4
447.8	212.5
448.0	213.5
448.2	214.1
448.4	214.5
448.6	215.8
448.8	217.0
449.0	218.0
449.2	218.3
449.4	218.8
449.6	219.4
449.8	220.9
450.0	222.2
450.2	223.0
450.4	223.3
450.6	223.7
450.8	224.6
451.0	225.8
451.2	227.7
451.4	229.1
451.6	229.7
451.8	229.7
452.0	230.4
452.2	231.2
452.4	233.2
452.6	234.4
452.8	234.6
453.0	235.3
453.2	235.7
453.4	235.9
453.6	237.3
453.8	237.5
454.0	237.8
454.2	239.2
454.4	240.3
454.6	242.1
454.8	243.3
455.0	243.0
455.2	243.4
455.4	243.9
455.6	244.9
455.8	246.9
456.0	248.5
456.2	249.3
456.4	250.0
456.6	250.0
456.8	250.8
457.0	251.1
457.2	252.4
457.4	253.1
457.6	252.9
457.8	253.4
458.0	254.7
458.2	255.0
458.4	256.5
458.6	256.8
458.8	256.6
459.0	257.0
459.2	258.2
459.4	259.1
459.6	260.1
459.8	260.4
460.0	260.4
460.2	260.2
460.4	261.5
460.6	262.3
460.8	263.5
461.0	264.5
461.2	265.6
461.4	265.9
461.6	266.6
461.8	266.3
462.0	266.4
462.2	266.2
462.4	266.8
462.6	267.7
462.8	268.7
463.0	269.8
463.2	270.5
463.4	271.3
463.6	271.9
463.8	272.4
464.0	273.0
464.2	273.5
464.4	273.0
464.6	274.1
464.8	275.2
465.0	276.3
465.2	277.9
465.4	278.3
465.6	278.1
465.8	278.6
466.0	279.3
466.2	279.5
466.4	280.4
466.6	281.1
466.8	281.7
467.0	283.1
467.2	284.6
467.4	285.1
467.6	285.5
467.8	285.2
468.0	284.9
468.2	287.0
468.4	289.5
468.6	290.6
468.8	291.8
469.0	292.2
469.2	291.9
469.4	293.0
469.6	294.3
469.8	294.7
470.0	296.7
470.2	297.2
470.4	297.7
470.6	299.7
470.8	300.8
471.0	303.0
471.2	305.1
471.4	305.4
471.6	307.1
471.8	308.9
472.0	309.1
472.2	310.1
472.4	310.7
472.6	311.4
472.8	313.0
473.0	314.4
473.2	315.5
473.4	317.1
473.6	319.0
473.8	321.1
474.0	323.1
474.2	325.1
474.4	326.9
474.6	329.0
474.8	330.3
475.0	331.6
475.2	333.1
475.4	334.7
475.6	336.4
475.8	338.8
476.0	340.7
476.2	342.5
476.4	345.3
476.6	347.0
476.8	348.5
477.0	350.1
477.2	351.5
477.4	353.7
477.6	356.9
477.8	359.0
478.0	361.2
478.2	362.4
478.4	363.3
478.6	365.6
478.8	367.1
479.0	369.9
479.2	373.1
479.4	376.2
479.6	379.4
479.8	381.7
480.0	383.7
480.2	386.4
480.4	388.4
480.6	390.9
480.8	392.6
481.0	394.2
481.2	397.3
481.4	399.8
481.6	402.3
481.8	405.8
482.0	408.8
482.2	412.0
482.4	415.0
482.6	416.2
482.8	417.3
483.0	419.4
483.2	422.3
483.4	425.2
483.6	428.3
483.8	430.7
484.0	433.6
484.2	436.4
484.4	439.4
484.6	441.8
484.8	444.2
485.0	447.2
485.2	450.2
485.4	453.6
485.6	456.9
485.8	459.3
486.0	462.3
486.2	466.3
486.4	470.0
486.6	473.9
486.8	476.4
487.0	478.7
487.2	480.9
487.4	483.4
487.6	485.9
487.8	488.2
488.0	490.2
488.2	493.0
488.4	496.1
488.6	499.3
488.8	502.4
489.0	505.9
489.2	509.3
489.4	513.1
489.6	517.1
489.8	519.6
490.0	522.0
490.2	524.3
490.4	526.4
490.6	531.4
490.8	535.5
491.0	539.8
491.2	543.3
491.4	546.3
491.6	549.6
491.8	553.7
492.0	556.1
492.2	558.0
492.4	559.4
492.6	562.5
492.8	566.5
493.0	570.1
493.2	573.5
493.4	577.0
493.6	581.5
493.8	585.1
494.0	588.5
494.2	591.3
494.4	593.6
494.6	595.8
494.8	600.2
495.0	603.3
495.2	607.9
495.4	613.3
495.6	617.7
495.8	619.9
496.0	624.0
496.2	626.6
496.4	630.1
496.6	634.3
496.8	638.8
497.0	642.5
497.2	647.2
497.4	651.1
497.6	655.4
497.8	659.1
498.0	662.9
498.2	665.0
498.4	668.6
498.6	672.8
498.8	677.2
499.0	682.0
499.2	686.3
499.4	690.3
499.6	695.7
499.8	700.9
500.0	704.9
500.2	708.7
500.4	712.2
500.6	717.3
500.8	721.8
501.0	726.8
501.2	730.8
501.4	734.3
501.6	738.8
501.8	743.1
502.0	747.1
502.2	751.8
502.4	756.6
502.6	760.1
502.8	765.1
503.0	771.0
503.2	776.7
503.4	782.4
503.6	788.6
503.8	793.7
504.0	800.9
504.2	807.4
504.4	811.6
504.6	814.9
504.8	819.8
505.0	825.5
505.2	832.5
505.4	837.7
505.6	842.1
505.8	846.3
506.0	853.3
506.2	860.1
506.4	865.3
506.6	870.4
506.8	875.5
507.0	879.7
507.2	885.6
507.4	891.5
507.6	895.2
507.8	901.7
508.0	910.6
508.2	917.4
508.4	924.6
508.6	931.1
508.8	934.4
509.0	938.4
509.2	944.6
509.4	951.6
509.6	958.7
509.8	964.9
510.0	970.3
510.2	976.3
510.4	981.5
510.6	990.1
510.8	997.2
511.0	1004
511.2	1011
511.4	1020
511.6	1026
511.8	1033
512.0	1037
512.2	1044
512.4	1050
512.6	1057
512.8	1063
513.0	1069
513.2	1073
513.4	1079
513.6	1085
513.8	1093
514.0	1100
514.2	1106
514.4	1112
514.6	1120
514.8	1128
515.0	1136
515.2	1141
515.4	1147
515.6	1153
515.8	1160
516.0	1167
516.2	1175
516.4	1180
516.6	1186
516.8	1192
517.0	1198
517.2	1205
517.4	1214
517.6	1221
517.8	1230
518.0	1237
518.2	1244
518.4	1253
518.6	1261
518.8	1268
519.0	1276
519.2	1281
519.4	1286
519.6	1292
519.8	1299
520.0	1307
520.2	1315
520.4	1321
520.6	1328
520.8	1333
521.0	1338
521.2	1345
521.4	1354
521.6	1364
521.8	1373
522.0	1377
522.2	1380
522.4	1383
522.6	1389
522.8	1396
523.0	1404
523.2	1411
523.4	1419
523.6	1425
523.8	1430
524.0	1437
524.2	1444
524.4	1450
524.6	1459
524.8	1466
525.0	1473
525.2	1481
525.4	1485
525.6	1492
525.8	1497
526.0	1501
526.2	1508
526.4	1514
526.6	1520
526.8	1527
527.0	1534
527.2	1539
527.4	1544
527.6	1552
527.8	1557
528.0	1562
528.2	1570
528.4	1574
528.6	1580
528.8	1588
529.0	1593
529.2	1600
529.4	1605
529.6	1608
529.8	1614
530.0	1620
530.2	1627
530.4	1632
530.6	1637
530.8	1639
531.0	1644
531.2	1648
531.4	1652
531.6	1658
531.8	1665
532.0	1669
532.2	1675
532.4	1679
532.6	1684
532.8	1692
533.0	1698
533.2	1703
533.4	1706
533.6	1709
533.8	1713
534.0	1719
534.2	1724
534.4	1730
534.6	1734
534.8	1737
535.0	1738
535.2	1743
535.4	1746
535.6	1751
535.8	1755
536.0	1760
536.2	1763
536.4	1765
536.6	1767
536.8	1772
537.0	1777
537.2	1784
537.4	1788
537.6	1792
537.8	1795
538.0	1797
538.2	1801
538.4	1804
538.6	1806
538.8	1811
539.0	1814
539.2	1816
539.4	1820
539.6	1822
539.8	1824
540.0	1826
540.2	1830
540.4	1831
540.6	1833
540.8	1836
541.0	1837
541.2	1839
541.4	1841
541.6	1842
541.8	1846
542.0	1849
542.2	1853
542.4	1854
542.6	1858
542.8	1861
543.0	1861
543.2	1863
543.4	1865
543.6	1862
543.8	1864
544.0	1867
544.2	1867
544.4	1870
544.6	1870
544.8	1870
545.0	1871
545.2	1873
545.4	1875
545.6	1879
545.8	1878
546.0	1881
546.2	1883
546.4	1883
546.6	1884
546.8	1886
547.0	1887
547.2	1885
547.4	1885
547.6	1884
547.8	1883
548.0	1885
548.2	1887
548.4	1885
548.6	1886
548.8	1886
549.0	1884
549.2	1885
549.4	1882
549.6	1881
549.8	1883
550.0	1884
550.2	1884
550.4	1887
550.6	1886
550.8	1887
551.0	1888
551.2	1887
551.4	1884
551.6	1882
551.8	1881
552.0	1880
552.2	1881
552.4	1880
552.6	1879
552.8	1878
553.0	1878
553.2	1876
553.4	1873
553.6	1870
553.8	1867
554.0	1865
554.2	1866
554.4	1864
554.6	1863
554.8	1862
555.0	1860
555.2	1860
555.4	1858
555.6	1856
555.8	1855
556.0	1853
556.2	1855
556.4	1854
556.6	1853
556.8	1852
557.0	1848
557.2	1845
557.4	1843
557.6	1841
557.8	1839
558.0	1838
558.2	1834
558.4	1831
558.6	1829
558.8	1826
559.0	1822
559.2	1820
559.4	1817
559.6	1814
559.8	1812
560.0	1808
560.2	1806
560.4	1805
560.6	1804
560.8	1802
561.0	1797
561.2	1793
561.4	1788
561.6	1785
561.8	1779
562.0	1779
562.2	1776
562.4	1774
562.6	1773
562.8	1773
563.0	1771
563.2	1769
563.4	1761
563.6	1755
563.8	1748
564.0	1746
564.2	1745
564.4	1742
564.6	1739
564.8	1736
565.0	1729
565.2	1726
565.4	1722
565.6	1719
565.8	1717
566.0	1714
566.2	1711
566.4	1708
566.6	1705
566.8	1702
567.0	1698
567.2	1694
567.4	1690
567.6	1687
567.8	1680
568.0	1673
568.2	1667
568.4	1661
568.6	1659
568.8	1661
569.0	1660
569.2	1656
569.4	1652
569.6	1646
569.8	1639
570.0	1634
570.2	1630
570.4	1623
570.6	1619
570.8	1617
571.0	1614
571.2	1610
571.4	1608
571.6	1603
571.8	1597
572.0	1592
572.2	1589
572.4	1586
572.6	1582
572.8	1576
573.0	1569
573.2	1564
573.4	1562
573.6	1559
573.8	1554
574.0	1547
574.2	1541
574.4	1536
574.6	1535
574.8	1534
575.0	1529
575.2	1523
575.4	1518
575.6	1513
575.8	1509
576.0	1507
576.2	1502
576.4	1496
576.6	1491
576.8	1484
577.0	1479
577.2	1475
577.4	1471
577.6	1467
577.8	1461
578.0	1455
578.2	1452
578.4	1447
578.6	1442
578.8	1439
579.0	1434
579.2	1431
579.4	1427
579.6	1422
579.8	1416
580.0	1412
580.2	1408
580.4	1406
580.6	1402
580.8	1397
581.0	1391
581.2	1385
581.4	1379
581.6	1375
581.8	1371
582.0	1365
582.2	1361
582.4	1357
582.6	1352
582.8	1348
583.0	1345
583.2	1340
583.4	1336
583.6	1331
583.8	1324
584.0	1319
584.2	1316
584.4	1313
584.6	1310
584.8	1306
585.0	1299
585.2	1293
585.4	1288
585.6	1284
585.8	1278
586.0	1273
586.2	1266
586.4	1262
586.6	1259
586.8	1255
587.0	1251
587.2	1246
587.4	1240
587.6	1237
587.8	1233
588.0	1229
588.2	1224
588.4	1217
588.6	1211
588.8	1207
589.0	1201
589.2	1198
589.4	1193
589.6	1190
589.8	1186
590.0	1183
590.2	1180
590.4	1175
590.6	1170
590.8	1164
591.0	1158
591.2	1152
591.4	1147
591.6	1143
591.8	1140
592.0	1136
592.2	1133
592.4	1128
592.6	1123
592.8	1117
593.0	1111
593.2	1107
593.4	1104
593.6	1100
593.8	1096
594.0	1093
594.2	1088
594.4	1083
594.6	1079
594.8	1074
595.0	1069
595.2	1067
595.4	1063
595.6	1058
595.8	1055
596.0	1050
596.2	1045
596.4	1040
596.6	1036
596.8	1033
597.0	1030
597.2	1026
597.4	1021
597.6	1017
597.8	1012
598.0	1009
598.2	1004
598.4	997.5
598.6	991.9
598.8	987.6
599.0	981.4
599.2	978.7
599.4	975.0
599.6	971.2
599.8	967.7
600.0	965.0
600.2	958.8
600.4	953.7
600.6	949.1
600.8	943.8
601.0	939.9
601.2	937.8
601.4	934.0
601.6	929.4
601.8	926.1
602.0	921.6
602.2	917.5
602.4	913.7
602.6	909.6
602.8	903.8
603.0	901.0
603.2	897.6
603.4	893.6
603.6	888.9
603.8	884.7
604.0	879.9
604.2	877.9
604.4	875.2
604.6	871.6
604.8	866.9
605.0	861.1
605.2	855.9
605.4	850.1
605.6	846.1
605.8	842.7
606.0	840.7
606.2	837.3
606.4	833.4
606.6	828.5
606.8	824.0
607.0	819.1
607.2	815.5
607.4	811.6
607.6	807.4
607.8	803.6
608.0	800.5
608.2	797.8
608.4	793.8
608.6	789.5
608.8	785.0
609.0	780.6
609.2	776.7
609.4	772.9
609.6	769.4
609.8	765.1
610.0	761.5
610.2	758.0
610.4	755.0
610.6	751.2
610.8	748.3
611.0	742.5
611.2	737.0
611.4	732.3
611.6	728.6
611.8	726.5
612.0	724.3
612.2	720.2
612.4	717.6
612.6	714.5
612.8	710.8
613.0	707.6
613.2	702.4
613.4	696.9
613.6	694.5
613.8	692.0
614.0	690.4
614.2	687.9
614.4	684.3
614.6	679.2
614.8	675.2
615.0	669.8
615.2	666.0
615.4	662.3
615.6	659.6
615.8	656.3
616.0	653.3
616.2	648.7
616.4	645.0
616.6	641.3
616.8	636.9
617.0	634.0
617.2	631.1
617.4	628.0
617.6	625.2
617.8	622.5
618.0	619.4
618.2	616.0
618.4	612.6
618.6	610.0
618.8	606.1
619.0	602.3
619.2	598.1
619.4	594.0
619.6	591.1
619.8	588.8
620.0	585.3
620.2	583.2
620.4	579.2
620.6	575.8
620.8	573.6
621.0	570.2
621.2	566.0
621.4	563.3
621.6	559.1
621.8	555.8
622.0	554.3
622.2	552.2
622.4	549.0
622.6	545.3
622.8	541.2
623.0	537.1
623.2	534.5
623.4	532.3
623.6	530.5
623.8	527.5
624.0	524.1
624.2	519.5
624.4	515.2
624.6	511.9
624.8	510.8
625.0	509.2
625.2	507.2
625.4	504.0
625.6	499.5
625.8	494.6
626.0	491.6
626.2	488.3
626.4	485.9
626.6	483.8
626.8	481.2
627.0	477.2
627.2	474.2
627.4	471.5
627.6	468.9
627.8	466.8
628.0	464.2
628.2	460.9
628.4	458.7
628.6	456.7
628.8	453.3
629.0	450.1
629.2	447.5
629.4	444.9
629.6	442.8
629.8	440.4
630.0	437.5
630.2	434.9
630.4	433.2
630.6	431.0
630.8	428.0
631.0	424.3
631.2	419.8
631.4	417.1
631.6	416.1
631.8	414.7
632.0	413.4
632.2	410.3
632.4	406.2
632.6	404.3
632.8	402.0
633.0	399.3
633.2	396.8
633.4	394.2
633.6	393.1
633.8	391.3
634.0	389.4
634.2	387.0
634.4	383.9
634.6	381.5
634.8	379.2
635.0	376.0
635.2	374.6
635.4	372.0
635.6	368.9
635.8	366.9
636.0	365.2
636.2	363.7
636.4	362.0
636.6	359.2
636.8	355.5
637.0	352.4
637.2	350.2
637.4	348.7
637.6	346.6
637.8	344.4
638.0	342.1
638.2	340.2
638.4	339.0
638.6	337.6
638.8	334.9
639.0	331.4
639.2	329.1
639.4	327.4
639.6	326.4
639.8	324.0
640.0	322.1
640.2	319.9
640.4	318.5
640.6	316.9
640.8	315.6
641.0	313.2
641.2	311.0
641.4	308.4
641.6	305.7
641.8	302.8
642.0	301.5
642.2	299.9
642.4	298.3
642.6	297.1
642.8	294.6
643.0	292.0
643.2	290.1
643.4	287.5
643.6	286.6
643.8	285.4
644.0	283.4
644.2	281.1
644.4	279.1
644.6	276.8
644.8	276.0
645.0	274.2
645.2	272.6
645.4	270.4
645.6	268.8
645.8	267.3
646.0	266.1
646.2	264.5
646.4	263.1
646.6	260.9
646.8	257.9
647.0	256.2
647.2	254.4
647.4	252.5
647.6	251.3
647.8	249.9
648.0	248.6
648.2	247.4
648.4	245.6
648.6	244.2
648.8	243.1
649.0	241.4
649.2	239.9
649.4	237.4
649.6	234.6
649.8	232.4
650.0	231.1
650.2	229.8
650.4	228.7
650.6	228.0
650.8	226.9
651.0	225.0
651.2	223.8
651.4	222.6
651.6	221.3
651.8	220.6
652.0	219.4
652.2	217.3
652.4	215.5
652.6	213.4
652.8	211.8
653.0	210.3
653.2	208.4
653.4	207.3
653.6	206.5
653.8	205.4
654.0	204.4
654.2	203.1
654.4	201.7
654.6	200.3
654.8	198.5
655.0	196.5
655.2	194.9
655.4	194.1
655.6	193.7
655.8	192.9
656.0	192.0
656.2	190.2
656.4	188.6
656.6	187.5
656.8	185.9
657.0	184.6
657.2	183.2
657.4	182.6
657.6	181.7
657.8	181.0
658.0	179.9
658.2	178.4
658.4	176.4
658.6	175.3
658.8	173.8
659.0	172.4
659.2	171.3
659.4	169.9
659.6	168.4
659.8	166.8
660.0	165.9
660.2	165.0
660.4	164.0
660.6	163.1
660.8	162.0
661.0	161.1
661.2	160.3
661.4	158.9
661.6	157.3
661.8	156.0
662.0	155.0
662.2	154.3
662.4	153.7
662.6	153.1
662.8	152.2
663.0	151.3
663.2	150.4
663.4	149.7
663.6	148.6
663.8	147.5
664.0	146.1
664.2	144.7
664.4	143.0
664.6	142.6
664.8	141.0
665.0	140.7
665.2	139.7
665.4	138.9
665.6	137.5
665.8	136.7
666.0	135.2
666.2	134.6
666.4	133.5
666.6	133.1
666.8	132.4
667.0	131.3
667.2	130.1
667.4	128.6
667.6	128.0
667.8	127.7
668.0	127.1
668.2	126.6
668.4	125.2
668.6	124.0
668.8	123.1
669.0	122.3
669.2	121.6
669.4	121.3
669.6	120.5
669.8	120.2
670.0	119.0
670.2	118.3
670.4	117.4
670.6	116.3
670.8	115.7
671.0	114.9
671.2	113.8
671.4	113.1
671.6	111.9
671.8	110.6
672.0	110.2
672.2	109.3
672.4	108.7
672.6	108.1
672.8	107.3
673.0	106.3
673.2	105.6
673.4	105.0
673.6	104.3
673.8	103.3
674.0	102.3
674.2	101.6
674.4	100.6
674.6	100.4
674.8	99.98
675.0	99.32
675.2	98.79
675.4	98.05
675.6	96.89
675.8	95.70
676.0	95.06
676.2	94.38
676.4	94.19
676.6	93.59
676.8	93.07
677.0	91.93
677.2	91.14
677.4	89.95
677.6	89.46
677.8	88.68
678.0	88.45
678.2	87.97
678.4	87.90
678.6	86.97
678.8	86.43
679.0	85.64
679.2	85.16
679.4	84.56
679.6	84.31
679.8	83.41
680.0	82.91
680.2	82.06
680.4	81.36
680.6	80.65
680.8	80.25
681.0	79.86
681.2	79.31
681.4	78.17
681.6	77.25
681.8	76.52
682.0	76.09
682.2	76.06
682.4	75.84
682.6	75.31
682.8	75.01
683.0	74.43
683.2	73.82
683.4	73.25
683.6	72.84
683.8	72.29
684.0	71.85
684.2	71.32
684.4	70.42
684.6	69.64
684.8	69.22
685.0	68.59
685.2	68.34
685.4	68.48
685.6	67.98
685.8	67.97
686.0	67.45
686.2	66.22
686.4	65.22
686.6	64.37
686.8	63.72
687.0	63.66
687.2	63.48
687.4	62.90
687.6	62.77
687.8	62.23
688.0	61.85
688.2	61.44
688.4	61.30
688.6	60.82
688.8	60.59
689.0	59.86
689.2	59.33
689.4	58.70
689.6	58.34
689.8	57.99
690.0	57.47
690.2	57.28
690.4	57.46
690.6	57.13
690.8	56.47
691.0	55.94
691.2	55.26
691.4	54.78
691.6	54.40
691.8	53.96
692.0	53.62
692.2	53.36
692.4	53.23
692.6	52.83
692.8	52.42
693.0	52.12
693.2	51.77
693.4	51.07
693.6	50.82
693.8	50.43
694.0	50.26
694.2	49.96
694.4	49.46
694.6	48.72
694.8	48.40
695.0	48.11
695.2	47.90
695.4	47.41
695.6	47.08
695.8	46.78
696.0	46.59
696.2	46.62
696.4	46.43
696.6	45.95
696.8	45.49
697.0	45.20
697.2	44.99
697.4	44.86
697.6	44.49
697.8	44.27
698.0	44.09
698.2	43.96
698.4	43.68
698.6	43.19
698.8	42.66
699.0	42.37
699.2	42.12
699.4	41.73
699.6	41.30
699.8	41.10
700.0	40.95
700.2	40.76
700.4	40.60
700.6	40.36
700.8	40.16
701.0	40.01
701.2	39.71
701.4	39.36
701.6	39.11
701.8	38.78
702.0	38.72
702.2	38.62
702.4	38.32
702.6	38.07
702.8	37.82
703.0	37.59
703.2	37.57
703.4	37.52
703.6	37.26
703.8	36.74
704.0	36.18
704.2	35.89
704.4	35.73
704.6	35.68
704.8	35.84
705.0	35.50
705.2	35.06
705.4	34.82
705.6	34.48
705.8	34.15
706.0	34.01
706.2	33.88
706.4	33.84
706.6	33.78
706.8	33.31
707.0	32.81
707.2	32.26
707.4	31.92
707.6	31.88
707.8	31.73
708.0	31.74
708.2	31.74
708.4	31.73
708.6	31.45
708.8	31.15
709.0	30.92
709.2	30.96
709.4	30.60
709.6	30.44
709.8	29.98
710.0	29.68
710.2	29.77
710.4	29.90
710.6	29.35
710.8	29.10
711.0	28.73
711.2	28.46
711.4	28.35
711.6	28.33
711.8	28.01
712.0	27.96
712.2	27.87
712.4	27.82
712.6	27.55
712.8	27.50
713.0	27.17
713.2	26.96
713.4	26.97
713.6	26.85
713.8	26.42
714.0	26.35
714.2	25.88
714.4	25.88
714.6	25.87
714.8	25.68
715.0	25.52
715.2	25.41
715.4	25.33
715.6	25.25
715.8	24.88
716.0	24.60
716.2	24.15
716.4	23.94
716.6	23.79
716.8	23.50
717.0	23.34
717.2	23.38
717.4	23.25
717.6	23.35
717.8	23.05
718.0	22.85
718.2	22.40
718.4	22.11
718.6	21.90
718.8	21.93
719.0	21.97
719.2	22.27
719.4	21.93
719.6	21.64
719.8	21.25
720.0	21.12
720.2	21.12
720.4	21.10
720.6	20.78
720.8	20.55
721.0	20.09
721.2	20.08
721.4	20.33
721.6	20.37
721.8	20.27
722.0	20.11
722.2	19.63
722.4	19.41
722.6	19.08
722.8	18.90
723.0	18.85
723.2	18.80
723.4	18.78
723.6	18.75
723.8	18.23
724.0	18.14
724.2	18.00
724.4	17.87
724.6	17.80
724.8	17.85
725.0	17.73
725.2	17.74
725.4	17.58
725.6	17.50
725.8	17.05
726.0	16.82
726.2	16.70
726.4	16.60
726.6	16.58
726.8	16.63
727.0	16.46
727.2	16.23
727.4	16.03
727.6	15.64
727.8	15.43
728.0	15.52
728.2	15.67
728.4	15.66
728.6	15.66
728.8	15.39
729.0	15.28
729.2	15.18
729.4	15.02
729.6	14.79
729.8	14.84
730.0	14.68
730.2	14.59
730.4	14.24
730.6	13.94
730.8	13.65
731.0	13.92
731.2	14.03
731.4	14.14
731.6	13.98
731.8	13.78
732.0	13.58
732.2	13.57
732.4	13.45
732.6	13.30
732.8	13.13
733.0	13.11
733.2	13.19
733.4	13.10
733.6	12.91
733.8	12.71
734.0	12.60
734.2	12.57
734.4	12.39
734.6	12.24
734.8	12.17
735.0	12.23
735.2	12.26
735.4	12.09
735.6	11.83
735.8	11.66
736.0	11.58
736.2	11.59
736.4	11.60
736.6	11.49
736.8	11.33
737.0	11.22
737.2	11.08
737.4	11.05
737.6	11.06
737.8	11.11
738.0	11.07
738.2	11.00
738.4	10.82
738.6	10.66
738.8	10.49
739.0	10.60
739.2	10.61
739.4	10.38
739.6	10.24
739.8	10.15
740.0	10.05
740.2	10.21
740.4	10.18
740.6	9.910
740.8	9.782
741.0	9.712
741.2	9.624
741.4	9.617
741.6	9.635
741.8	9.568
742.0	9.518
742.2	9.488
742.4	9.385
742.6	9.308
742.8	9.243
743.0	9.215
743.2	9.182
743.4	9.083
743.6	8.957
743.8	8.941
744.0	8.848
744.2	8.837
744.4	8.841
744.6	8.715
744.8	8.704
745.0	8.752
745.2	8.729
745.4	8.600
745.6	8.474
745.8	8.364
746.0	8.341
746.2	8.394
746.4	8.344
746.6	8.171
746.8	8.195
747.0	8.177
747.2	8.010
747.4	7.988
747.6	7.845
747.8	7.775
748.0	7.792
748.2	7.761
748.4	7.631
748.6	7.577
748.8	7.528
749.0	7.487
749.2	7.518
749.4	7.523
749.6	7.469
749.8	7.366
750.0	7.355
750.2	7.195
750.4	7.256
750.6	7.139
750.8	6.957
751.0	6.906
751.2	6.908
751.4	6.885
751.6	6.997
751.8	6.871
752.0	6.802
752.2	6.738
752.4	6.698
752.6	6.700
752.8	6.698
753.0	6.580
753.2	6.588
753.4	6.524
753.6	6.528
753.8	6.410
754.0	6.387
754.2	6.371
754.4	6.365
754.6	6.308
754.8	6.293
755.0	6.245
755.2	6.260
755.4	6.330
755.6	6.354
755.8	6.291
756.0	6.143
756.2	6.075
756.4	5.962
756.6	5.971
756.8	5.968
757.0	5.991
757.2	5.912
757.4	5.827
757.6	5.792
757.8	5.726
758.0	5.666
758.2	5.826
758.4	5.879
758.6	5.808
758.8	5.775
759.0	5.690
759.2	5.579
759.4	5.611
759.6	5.567
759.8	5.487
760.0	5.582
760.2	5.593
760.4	5.475
760.6	5.399
760.8	5.338
761.0	5.376
761.2	5.429
761.4	5.251
761.6	5.105
761.8	4.996
762.0	4.914
762.2	5.035
762.4	4.971
762.6	4.962
762.8	4.933
763.0	4.896
763.2	4.830
763.4	4.868
763.6	4.860
763.8	5.002
764.0	5.000
764.2	4.978
764.4	4.900
764.6	4.808
764.8	4.769
765.0	4.779
765.2	4.738
765.4	4.777
765.6	4.734
765.8	4.615
766.0	4.606
766.2	4.633
766.4	4.644
766.6	4.739
766.8	4.621
767.0	4.444
767.2	4.340
767.4	4.350
767.6	4.384
767.8	4.457
768.0	4.494
768.2	4.528
768.4	4.506
768.6	4.532
768.8	4.483
769.0	4.446
769.2	4.381
769.4	4.355
769.6	4.303
769.8	4.284
770.0	4.256
770.2	4.325
770.4	4.250
770.6	4.244
770.8	4.233
771.0	4.195
771.2	4.200
771.4	4.266
771.6	4.208
771.8	4.253
772.0	4.350
772.2	4.290
772.4	4.280
772.6	4.301
772.8	4.243
773.0	4.251
773.2	4.296
773.4	4.238
773.6	4.139
773.8	4.156
774.0	4.136
774.2	4.094
774.4	4.090
774.6	4.145
774.8	4.144
775.0	4.264
775.2	4.339
775.4	4.315
775.6	4.314
775.8	4.378
776.0	4.425
776.2	4.570
776.4	4.578
776.6	4.569
776.8	4.558
777.0	4.700
777.2	4.806
777.4	4.976
777.6	5.051
777.8	5.164
778.0	5.221
778.2	5.375
778.4	5.518
778.6	5.695
778.8	5.879
779.0	6.144
779.2	6.426
779.4	6.553
779.6	6.808
779.8	6.905
780.0	7.097
780.2	7.594
780.4	8.028
780.6	8.528
780.8	9.164
781.0	9.642
781.2	9.947
781.4	10.47
781.6	11.00
781.8	11.68
782.0	12.39
782.2	13.23
782.4	13.82
782.6	14.60
782.8	15.46
783.0	16.54
783.2	17.59
783.4	18.56
783.6	19.49
783.8	20.64
784.0	21.90
784.2	23.49
784.4	25.12
784.6	26.43
784.8	27.76
785.0	29.32
785.2	30.81
785.4	32.31
785.6	34.17
785.8	36.16
786.0	38.24
786.2	40.28
786.4	42.15
786.6	44.22
786.8	46.47
787.0	48.70
787.2	51.09
787.4	53.52
787.6	56.01
787.8	58.97
788.0	61.94
788.2	64.76
788.4	67.33
788.6	70.03
788.8	72.88
789.0	76.12
789.2	79.38
789.4	82.48
789.6	85.23
789.8	88.30
790.0	92.11
790.2	95.61
790.4	98.85
790.6	101.9
790.8	105.1
791.0	108.3
791.2	112.2
791.4	115.9
791.6	119.4
791.8	123.3
792.0	127.1
792.2	131.0
792.4	134.5
792.6	137.9
792.8	141.0
793.0	144.7
793.2	148.6
793.4	152.7
793.6	156.3
793.8	159.3
794.0	162.3
794.2	165.8
794.4	169.5
794.6	173.5
794.8	176.9
795.0	179.6
795.2	182.5
795.4	185.6
795.6	189.2
795.8	193.3
796.0	196.5
796.2	200.2
796.4	203.6
796.6	206.5
796.8	209.6
797.0	212.3
797.2	214.5
797.4	217.0
797.6	219.9
797.8	222.2
798.0	224.6
798.2	226.6
798.4	229.0
798.6	231.3
798.8	233.7
799.0	236.3
799.2	238.4
799.4	239.6
799.6	240.9
799.8	242.3
800.0	242.9
800.2	244.7
800.4	246.3
800.6	248.3
800.8	250.2
801.0	251.1
801.2	251.2
801.4	251.7
801.6	252.8
801.8	254.0
802.0	254.5
802.2	254.5
802.4	254.8
802.6	255.6
802.8	256.0
803.0	256.1
803.2	254.8
803.4	255.0
803.6	254.6
803.8	254.4
804.0	253.8
804.2	252.8
804.4	251.1
804.6	250.4
804.8	249.0
805.0	248.6
805.2	248.5
805.4	248.6
805.6	247.7
805.8	246.0
806.0	243.6
806.2	241.4
806.4	239.6
806.6	238.5
806.8	237.0
807.0	235.5
807.2	233.5
807.4	232.1
807.6	229.8
807.8	226.9
808.0	224.2
808.2	222.1
808.4	219.7
808.6	217.9
808.8	215.1
809.0	212.3
809.2	209.5
809.4	208.1
809.6	205.6
809.8	202.9
810.0	199.7
810.2	197.0
810.4	194.2
810.6	190.7
810.8	186.9
811.0	183.6
811.2	180.3
811.4	177.7
811.6	175.1
811.8	170.9
812.0	167.6
812.2	163.8
812.4	160.6
812.6	157.8
812.8	155.0
813.0	152.0
813.2	148.8
813.4	145.0
813.6	141.6
813.8	138.2
814.0	134.3
814.2	130.6
814.4	127.1
814.6	124.1
814.8	121.0
815.0	118.0
815.2	114.7
815.4	111.3
815.6	107.6
815.8	104.4
816.0	100.9
816.2	97.62
816.4	95.24
816.6	92.62
816.8	89.49
817.0	86.64
817.2	83.48
817.4	80.25
817.6	77.63
817.8	75.25
818.0	72.87
818.2	70.31
818.4	67.59
818.6	64.85
818.8	61.99
819.0	59.74
819.2	57.60
819.4	55.24
819.6	52.90
819.8	50.34
820.0	47.96
820.2	45.94
820.4	44.24
820.6	42.62
820.8	40.72
821.0	38.54
821.2	36.57
821.4	34.59
821.6	32.81
821.8	31.24
822.0	29.66
822.2	28.17
822.4	26.83
822.6	25.50
822.8	24.21
823.0	23.09
823.2	21.94
823.4	20.69
823.6	19.39
823.8	18.28
824.0	17.39
824.2	16.67
824.4	15.86
824.6	15.03
824.8	14.05
825.0	13.15
825.2	12.54
825.4	12.01
825.6	11.38
825.8	10.79
826.0	10.06
826.2	9.351
826.4	8.769
826.6	8.305
826.8	7.876
827.0	7.525
827.2	7.209
827.4	6.967
827.6	6.742
827.8	6.579
828.0	6.230
828.2	5.819
828.4	5.425
828.6	5.145
828.8	4.956
829.0	4.818
829.2	4.689
829.4	4.548
829.6	4.397
829.8	4.353
830.0	4.209
830.2	4.083
830.4	4.054
830.6	4.011
830.8	3.960
831.0	3.889
831.2	3.802
831.4	3.763
831.6	3.654
831.8	3.664
832.0	3.599
832.2	3.482
832.4	3.477
832.6	3.471
832.8	3.386
833.0	3.393
833.2	3.401
833.4	3.395
833.6	3.426
833.8	3.424
834.0	3.336
834.2	3.271
834.4	3.250
834.6	3.222
834.8	3.249
835.0	3.241
835.2	3.178
835.4	3.192
835.6	3.256
835.8	3.256
836.0	3.233
836.2	3.197
836.4	3.155
836.6	3.163
836.8	3.247
837.0	3.238
837.2	3.128
837.4	3.122
837.6	3.066
837.8	3.089
838.0	3.140
838.2	3.171
838.4	3.144
838.6	3.150
838.8	3.068
839.0	3.057
839.2	3.021
839.4	3.038
839.6	3.047
839.8	3.027
840.0	2.961
840.2	2.919
840.4	2.906
840.6	2.994
840.8	3.010
841.0	3.009
841.2	3.023
841.4	3.031
841.6	3.044
841.8	3.126
842.0	3.132
842.2	3.158
842.4	3.226
842.6	3.251
842.8	3.223
843.0	3.212
843.2	3.070
843.4	3.012
843.6	3.022
843.8	3.029
844.0	3.050
844.2	3.039
844.4	3.026
844.6	3.048
844.8	3.086
845.0	3.107
845.2	3.075
845.4	3.006
845.6	3.045
845.8	3.004
846.0	2.988
846.2	3.023
846.4	2.983
846.6	2.937
846.8	2.986
847.0	2.996
847.2	3.029
847.4	3.095
847.6	3.048
847.8	3.010
848.0	3.013
848.2	3.014
848.4	2.977
848.6	2.997
848.8	2.983
849.0	2.973
849.2	3.018
849.4	3.100
849.6	3.153
849.8	3.160
850.0	3.094

