Sample:	'20211010A(EM)
File name:	G-Ni-CDS-600-S2- 20h.FDS
Run date:	'09:50:04, 03/23/2023
Operator:	Administrator
Comment:	'

Instrument
Model:	F-4700 FL Spectrophotometer
Serial number:	2019-001
ROM Version:	5J24010 00

Instrument parameters
Measurement type:	Wavelength scan
Scan mode:	Emission
Data mode:	Fluorescence
EX WL:	400.0 nm
EM  Start WL:	420.0 nm
EM  End WL:	850.0 nm
Scan speed:	1200 nm/min
Delay:	0.0 s
EX Slit:	10.0 nm
EM Slit:	10.0 nm
PMT Voltage:	450 V
Response:	0.002 s
Corrected spectra:	Off
Shutter control:	On

Processing performed
Savitsky-Golay smoothed
Smoothing order:	3
Number of points:	7
Number of times:	1

Peak integration
Integration method:	Rectangular
Sensitivity:	1
Threshold:	1.000

Peaks
No.	Start(nm)	Apex(nm)	End(nm)	Height(Data)	Valley(nm)	Valley(Data)
1	420.0	546.8	780.4	7877	780.4	9.185
2	780.4	800.4	850.0	30.22	850.0	2.094

Data points
nm	Data
420.0	3.897
420.2	3.746
420.4	3.694
420.6	3.713
420.8	3.788
421.0	3.867
421.2	3.901
421.4	3.897
421.6	3.972
421.8	3.876
422.0	3.874
422.2	3.880
422.4	3.873
422.6	3.821
422.8	3.777
423.0	3.698
423.2	3.734
423.4	3.772
423.6	3.765
423.8	3.801
424.0	3.901
424.2	3.849
424.4	3.892
424.6	3.904
424.8	3.860
425.0	3.877
425.2	3.968
425.4	3.938
425.6	3.969
425.8	4.023
426.0	4.055
426.2	4.055
426.4	4.099
426.6	4.089
426.8	4.034
427.0	4.075
427.2	3.960
427.4	3.924
427.6	3.952
427.8	3.934
428.0	3.983
428.2	4.144
428.4	4.235
428.6	4.325
428.8	4.356
429.0	4.188
429.2	4.074
429.4	3.999
429.6	4.126
429.8	4.205
430.0	4.334
430.2	4.313
430.4	4.279
430.6	4.324
430.8	4.508
431.0	4.606
431.2	4.672
431.4	4.544
431.6	4.401
431.8	4.314
432.0	4.329
432.2	4.378
432.4	4.479
432.6	4.508
432.8	4.535
433.0	4.571
433.2	4.607
433.4	4.676
433.6	4.703
433.8	4.757
434.0	4.754
434.2	4.713
434.4	4.755
434.6	4.846
434.8	4.925
435.0	5.080
435.2	5.141
435.4	4.950
435.6	4.924
435.8	4.857
436.0	4.868
436.2	4.962
436.4	5.065
436.6	5.163
436.8	5.281
437.0	5.359
437.2	5.407
437.4	5.401
437.6	5.429
437.8	5.442
438.0	5.346
438.2	5.369
438.4	5.384
438.6	5.476
438.8	5.560
439.0	5.585
439.2	5.620
439.4	5.592
439.6	5.618
439.8	5.694
440.0	5.720
440.2	5.873
440.4	6.050
440.6	6.156
440.8	6.357
441.0	6.507
441.2	6.593
441.4	6.705
441.6	6.790
441.8	6.771
442.0	6.836
442.2	6.984
442.4	7.033
442.6	7.107
442.8	7.053
443.0	7.017
443.2	7.054
443.4	7.139
443.6	7.160
443.8	7.396
444.0	7.536
444.2	7.911
444.4	8.034
444.6	8.046
444.8	7.980
445.0	8.019
445.2	8.149
445.4	8.406
445.6	8.557
445.8	8.703
446.0	8.688
446.2	8.872
446.4	9.026
446.6	9.408
446.8	9.546
447.0	9.697
447.2	9.749
447.4	10.01
447.6	10.06
447.8	10.33
448.0	10.13
448.2	10.23
448.4	10.35
448.6	10.63
448.8	10.78
449.0	11.02
449.2	10.98
449.4	11.14
449.6	11.18
449.8	11.42
450.0	11.64
450.2	11.99
450.4	12.21
450.6	12.30
450.8	12.35
451.0	12.47
451.2	12.64
451.4	12.73
451.6	12.88
451.8	13.15
452.0	13.37
452.2	13.73
452.4	13.97
452.6	14.08
452.8	14.27
453.0	14.58
453.2	14.73
453.4	14.85
453.6	15.00
453.8	15.27
454.0	15.36
454.2	15.55
454.4	15.88
454.6	16.03
454.8	16.32
455.0	16.57
455.2	16.80
455.4	16.99
455.6	17.28
455.8	17.28
456.0	17.25
456.2	17.24
456.4	17.61
456.6	17.88
456.8	18.38
457.0	18.74
457.2	18.99
457.4	19.22
457.6	19.28
457.8	19.31
458.0	19.66
458.2	20.06
458.4	20.38
458.6	20.77
458.8	20.80
459.0	21.02
459.2	21.36
459.4	21.80
459.6	22.24
459.8	22.73
460.0	23.06
460.2	23.26
460.4	23.39
460.6	23.65
460.8	24.08
461.0	24.40
461.2	24.70
461.4	25.02
461.6	25.39
461.8	25.92
462.0	26.34
462.2	26.54
462.4	26.79
462.6	27.18
462.8	27.54
463.0	28.06
463.2	28.48
463.4	28.90
463.6	29.45
463.8	30.22
464.0	30.64
464.2	31.14
464.4	31.73
464.6	32.36
464.8	33.10
465.0	34.06
465.2	34.41
465.4	34.83
465.6	35.21
465.8	35.87
466.0	36.79
466.2	37.61
466.4	38.26
466.6	38.83
466.8	39.58
467.0	40.20
467.2	40.90
467.4	41.55
467.6	42.28
467.8	42.95
468.0	44.40
468.2	45.07
468.4	45.93
468.6	46.70
468.8	47.66
469.0	48.35
469.2	49.73
469.4	50.47
469.6	51.37
469.8	52.31
470.0	53.39
470.2	54.69
470.4	56.22
470.6	57.50
470.8	58.78
471.0	60.09
471.2	61.22
471.4	62.89
471.6	64.15
471.8	65.41
472.0	67.13
472.2	68.58
472.4	70.39
472.6	71.99
472.8	73.34
473.0	74.89
473.2	76.62
473.4	78.26
473.6	80.09
473.8	81.77
474.0	83.49
474.2	85.59
474.4	87.84
474.6	90.22
474.8	92.53
475.0	94.49
475.2	96.13
475.4	98.28
475.6	100.5
475.8	103.4
476.0	106.6
476.2	109.3
476.4	111.6
476.6	113.6
476.8	116.1
477.0	119.2
477.2	122.7
477.4	126.4
477.6	129.3
477.8	131.6
478.0	134.4
478.2	137.5
478.4	141.0
478.6	144.9
478.8	149.0
479.0	153.0
479.2	157.2
479.4	161.2
479.6	164.4
479.8	167.8
480.0	171.4
480.2	175.4
480.4	180.7
480.6	185.1
480.8	189.4
481.0	194.0
481.2	198.8
481.4	203.6
481.6	208.7
481.8	212.9
482.0	217.7
482.2	223.0
482.4	228.3
482.6	233.8
482.8	238.7
483.0	244.4
483.2	250.5
483.4	257.0
483.6	263.1
483.8	270.0
484.0	276.5
484.2	282.9
484.4	289.6
484.6	296.0
484.8	302.1
485.0	310.4
485.2	318.6
485.4	325.5
485.6	333.5
485.8	342.3
486.0	350.0
486.2	358.8
486.4	367.2
486.6	374.4
486.8	382.6
487.0	392.4
487.2	401.6
487.4	411.0
487.6	419.7
487.8	428.0
488.0	437.4
488.2	447.4
488.4	458.4
488.6	469.2
488.8	480.5
489.0	491.4
489.2	502.3
489.4	513.1
489.6	524.6
489.8	536.1
490.0	549.2
490.2	562.7
490.4	575.4
490.6	587.4
490.8	598.6
491.0	610.7
491.2	623.3
491.4	638.2
491.6	652.8
491.8	668.5
492.0	682.4
492.2	695.5
492.4	709.1
492.6	722.8
492.8	737.8
493.0	755.6
493.2	772.6
493.4	789.3
493.6	805.9
493.8	821.7
494.0	836.3
494.2	853.4
494.4	870.6
494.6	887.5
494.8	905.3
495.0	925.3
495.2	943.2
495.4	963.7
495.6	984.6
495.8	1007
496.0	1026
496.2	1047
496.4	1065
496.6	1082
496.8	1100
497.0	1123
497.2	1145
497.4	1168
497.6	1189
497.8	1209
498.0	1229
498.2	1252
498.4	1276
498.6	1298
498.8	1321
499.0	1344
499.2	1369
499.4	1395
499.6	1422
499.8	1449
500.0	1477
500.2	1504
500.4	1529
500.6	1553
500.8	1577
501.0	1603
501.2	1631
501.4	1663
501.6	1690
501.8	1718
502.0	1744
502.2	1773
502.4	1801
502.6	1832
502.8	1858
503.0	1887
503.2	1917
503.4	1948
503.6	1976
503.8	2005
504.0	2033
504.2	2065
504.4	2102
504.6	2136
504.8	2170
505.0	2202
505.2	2232
505.4	2267
505.6	2302
505.8	2338
506.0	2371
506.2	2403
506.4	2438
506.6	2474
506.8	2509
507.0	2543
507.2	2576
507.4	2610
507.6	2645
507.8	2678
508.0	2713
508.2	2747
508.4	2784
508.6	2821
508.8	2858
509.0	2898
509.2	2936
509.4	2975
509.6	3012
509.8	3046
510.0	3082
510.2	3120
510.4	3155
510.6	3195
510.8	3230
511.0	3265
511.2	3305
511.4	3343
511.6	3383
511.8	3427
512.0	3467
512.2	3511
512.4	3553
512.6	3589
512.8	3624
513.0	3659
513.2	3691
513.4	3726
513.6	3762
513.8	3807
514.0	3851
514.2	3896
514.4	3939
514.6	3978
514.8	4016
515.0	4059
515.2	4097
515.4	4136
515.6	4180
515.8	4224
516.0	4262
516.2	4302
516.4	4337
516.6	4376
516.8	4419
517.0	4465
517.2	4503
517.4	4544
517.6	4578
517.8	4615
518.0	4650
518.2	4689
518.4	4725
518.6	4769
518.8	4810
519.0	4851
519.2	4890
519.4	4928
519.6	4964
519.8	5005
520.0	5045
520.2	5085
520.4	5123
520.6	5167
520.8	5206
521.0	5250
521.2	5290
521.4	5328
521.6	5356
521.8	5396
522.0	5430
522.2	5474
522.4	5518
522.6	5557
522.8	5590
523.0	5618
523.2	5644
523.4	5678
523.6	5716
523.8	5755
524.0	5789
524.2	5822
524.4	5853
524.6	5890
524.8	5928
525.0	5969
525.2	6009
525.4	6047
525.6	6075
525.8	6106
526.0	6131
526.2	6162
526.4	6198
526.6	6236
526.8	6269
527.0	6303
527.2	6335
527.4	6373
527.6	6403
527.8	6432
528.0	6456
528.2	6484
528.4	6510
528.6	6543
528.8	6572
529.0	6605
529.2	6635
529.4	6663
529.6	6685
529.8	6716
530.0	6745
530.2	6775
530.4	6804
530.6	6834
530.8	6862
531.0	6892
531.2	6913
531.4	6930
531.6	6952
531.8	6982
532.0	7007
532.2	7040
532.4	7065
532.6	7086
532.8	7102
533.0	7119
533.2	7139
533.4	7168
533.6	7195
533.8	7221
534.0	7236
534.2	7252
534.4	7275
534.6	7300
534.8	7325
535.0	7347
535.2	7366
535.4	7382
535.6	7398
535.8	7416
536.0	7433
536.2	7450
536.4	7471
536.6	7484
536.8	7498
537.0	7513
537.2	7525
537.4	7538
537.6	7552
537.8	7568
538.0	7579
538.2	7595
538.4	7609
538.6	7613
538.8	7626
539.0	7642
539.2	7650
539.4	7666
539.6	7683
539.8	7694
540.0	7709
540.2	7723
540.4	7728
540.6	7735
540.8	7742
541.0	7750
541.2	7763
541.4	7776
541.6	7789
541.8	7800
542.0	7799
542.2	7803
542.4	7813
542.6	7817
542.8	7823
543.0	7829
543.2	7832
543.4	7841
543.6	7851
543.8	7861
544.0	7866
544.2	7868
544.4	7868
544.6	7868
544.8	7865
545.0	7868
545.2	7870
545.4	7868
545.6	7868
545.8	7872
546.0	7869
546.2	7874
546.4	7875
546.6	7876
546.8	7877
547.0	7876
547.2	7872
547.4	7872
547.6	7868
547.8	7876
548.0	7873
548.2	7872
548.4	7872
548.6	7871
548.8	7866
549.0	7862
549.2	7855
549.4	7849
549.6	7839
549.8	7838
550.0	7835
550.2	7831
550.4	7824
550.6	7812
550.8	7797
551.0	7792
551.2	7790
551.4	7795
551.6	7792
551.8	7791
552.0	7784
552.2	7774
552.4	7762
552.6	7751
552.8	7738
553.0	7729
553.2	7719
553.4	7713
553.6	7710
553.8	7711
554.0	7706
554.2	7692
554.4	7680
554.6	7661
554.8	7652
555.0	7642
555.2	7632
555.4	7619
555.6	7608
555.8	7591
556.0	7583
556.2	7569
556.4	7561
556.6	7553
556.8	7543
557.0	7526
557.2	7511
557.4	7498
557.6	7488
557.8	7483
558.0	7471
558.2	7456
558.4	7437
558.6	7424
558.8	7413
559.0	7403
559.2	7386
559.4	7365
559.6	7336
559.8	7321
560.0	7312
560.2	7307
560.4	7297
560.6	7280
560.8	7258
561.0	7242
561.2	7228
561.4	7214
561.6	7200
561.8	7184
562.0	7168
562.2	7151
562.4	7137
562.6	7122
562.8	7108
563.0	7093
563.2	7077
563.4	7056
563.6	7034
563.8	7015
564.0	6999
564.2	6984
564.4	6975
564.6	6957
564.8	6942
565.0	6923
565.2	6902
565.4	6876
565.6	6856
565.8	6839
566.0	6826
566.2	6811
566.4	6793
566.6	6770
566.8	6753
567.0	6736
567.2	6718
567.4	6696
567.6	6674
567.8	6659
568.0	6644
568.2	6627
568.4	6610
568.6	6590
568.8	6566
569.0	6549
569.2	6529
569.4	6510
569.6	6485
569.8	6470
570.0	6450
570.2	6427
570.4	6407
570.6	6387
570.8	6369
571.0	6356
571.2	6340
571.4	6318
571.6	6301
571.8	6279
572.0	6263
572.2	6244
572.4	6225
572.6	6205
572.8	6186
573.0	6160
573.2	6138
573.4	6117
573.6	6100
573.8	6081
574.0	6061
574.2	6041
574.4	6022
574.6	5999
574.8	5981
575.0	5956
575.2	5934
575.4	5919
575.6	5907
575.8	5891
576.0	5872
576.2	5841
576.4	5813
576.6	5791
576.8	5775
577.0	5760
577.2	5745
577.4	5724
577.6	5705
577.8	5685
578.0	5666
578.2	5644
578.4	5623
578.6	5601
578.8	5578
579.0	5559
579.2	5539
579.4	5520
579.6	5502
579.8	5489
580.0	5470
580.2	5452
580.4	5429
580.6	5407
580.8	5389
581.0	5372
581.2	5351
581.4	5328
581.6	5303
581.8	5281
582.0	5262
582.2	5244
582.4	5226
582.6	5204
582.8	5185
583.0	5165
583.2	5151
583.4	5134
583.6	5118
583.8	5099
584.0	5078
584.2	5056
584.4	5040
584.6	5021
584.8	5005
585.0	4984
585.2	4962
585.4	4939
585.6	4918
585.8	4896
586.0	4877
586.2	4857
586.4	4837
586.6	4817
586.8	4801
587.0	4781
587.2	4762
587.4	4743
587.6	4719
587.8	4697
588.0	4680
588.2	4660
588.4	4645
588.6	4629
588.8	4609
589.0	4587
589.2	4564
589.4	4542
589.6	4527
589.8	4512
590.0	4493
590.2	4471
590.4	4453
590.6	4431
590.8	4415
591.0	4400
591.2	4382
591.4	4363
591.6	4350
591.8	4330
592.0	4315
592.2	4296
592.4	4277
592.6	4259
592.8	4242
593.0	4225
593.2	4209
593.4	4186
593.6	4167
593.8	4148
594.0	4129
594.2	4112
594.4	4095
594.6	4073
594.8	4057
595.0	4036
595.2	4017
595.4	3998
595.6	3981
595.8	3962
596.0	3945
596.2	3925
596.4	3906
596.6	3893
596.8	3883
597.0	3868
597.2	3852
597.4	3831
597.6	3811
597.8	3796
598.0	3782
598.2	3764
598.4	3745
598.6	3725
598.8	3707
599.0	3691
599.2	3677
599.4	3660
599.6	3642
599.8	3625
600.0	3607
600.2	3589
600.4	3572
600.6	3553
600.8	3536
601.0	3523
601.2	3510
601.4	3497
601.6	3484
601.8	3465
602.0	3446
602.2	3427
602.4	3410
602.6	3396
602.8	3382
603.0	3364
603.2	3345
603.4	3327
603.6	3315
603.8	3298
604.0	3275
604.2	3254
604.4	3237
604.6	3221
604.8	3212
605.0	3198
605.2	3182
605.4	3168
605.6	3153
605.8	3137
606.0	3124
606.2	3109
606.4	3088
606.6	3068
606.8	3049
607.0	3029
607.2	3016
607.4	3003
607.6	2988
607.8	2979
608.0	2966
608.2	2950
608.4	2938
608.6	2920
608.8	2904
609.0	2892
609.2	2877
609.4	2864
609.6	2852
609.8	2838
610.0	2821
610.2	2804
610.4	2790
610.6	2772
610.8	2759
611.0	2745
611.2	2734
611.4	2718
611.6	2704
611.8	2686
612.0	2671
612.2	2656
612.4	2642
612.6	2626
612.8	2614
613.0	2597
613.2	2586
613.4	2574
613.6	2559
613.8	2547
614.0	2532
614.2	2514
614.4	2501
614.6	2485
614.8	2471
615.0	2461
615.2	2448
615.4	2435
615.6	2421
615.8	2406
616.0	2392
616.2	2381
616.4	2367
616.6	2351
616.8	2335
617.0	2323
617.2	2310
617.4	2297
617.6	2283
617.8	2267
618.0	2252
618.2	2240
618.4	2230
618.6	2218
618.8	2207
619.0	2193
619.2	2180
619.4	2168
619.6	2157
619.8	2145
620.0	2134
620.2	2122
620.4	2112
620.6	2101
620.8	2089
621.0	2075
621.2	2061
621.4	2051
621.6	2039
621.8	2029
622.0	2018
622.2	2006
622.4	1994
622.6	1982
622.8	1969
623.0	1956
623.2	1943
623.4	1934
623.6	1923
623.8	1909
624.0	1897
624.2	1885
624.4	1874
624.6	1864
624.8	1854
625.0	1840
625.2	1830
625.4	1819
625.6	1810
625.8	1801
626.0	1791
626.2	1780
626.4	1767
626.6	1756
626.8	1747
627.0	1736
627.2	1726
627.4	1713
627.6	1699
627.8	1689
628.0	1680
628.2	1670
628.4	1662
628.6	1650
628.8	1641
629.0	1631
629.2	1619
629.4	1611
629.6	1601
629.8	1590
630.0	1581
630.2	1573
630.4	1565
630.6	1555
630.8	1544
631.0	1533
631.2	1522
631.4	1514
631.6	1506
631.8	1496
632.0	1485
632.2	1477
632.4	1468
632.6	1458
632.8	1451
633.0	1444
633.2	1435
633.4	1425
633.6	1413
633.8	1401
634.0	1392
634.2	1386
634.4	1379
634.6	1370
634.8	1360
635.0	1352
635.2	1344
635.4	1337
635.6	1329
635.8	1320
636.0	1311
636.2	1302
636.4	1292
636.6	1284
636.8	1277
637.0	1269
637.2	1260
637.4	1250
637.6	1241
637.8	1233
638.0	1229
638.2	1225
638.4	1218
638.6	1209
638.8	1202
639.0	1192
639.2	1184
639.4	1178
639.6	1169
639.8	1161
640.0	1156
640.2	1147
640.4	1138
640.6	1132
640.8	1121
641.0	1115
641.2	1108
641.4	1103
641.6	1095
641.8	1089
642.0	1080
642.2	1073
642.4	1066
642.6	1061
642.8	1055
643.0	1049
643.2	1043
643.4	1032
643.6	1024
643.8	1016
644.0	1011
644.2	1006
644.4	1000
644.6	992.2
644.8	985.1
645.0	977.8
645.2	972.8
645.4	967.0
645.6	959.8
645.8	954.1
646.0	944.7
646.2	938.9
646.4	933.8
646.6	927.9
646.8	922.4
647.0	916.3
647.2	910.7
647.4	906.0
647.6	898.2
647.8	891.1
648.0	884.0
648.2	877.4
648.4	873.0
648.6	869.3
648.8	864.3
649.0	858.9
649.2	853.3
649.4	847.1
649.6	840.8
649.8	836.2
650.0	830.0
650.2	824.5
650.4	820.0
650.6	813.9
650.8	809.1
651.0	803.0
651.2	797.2
651.4	790.7
651.6	785.6
651.8	781.0
652.0	775.2
652.2	770.1
652.4	765.4
652.6	758.9
652.8	753.5
653.0	748.6
653.2	742.9
653.4	737.3
653.6	732.6
653.8	728.5
654.0	724.1
654.2	718.8
654.4	713.7
654.6	707.7
654.8	702.6
655.0	698.0
655.2	694.6
655.4	690.7
655.6	686.3
655.8	680.7
656.0	676.2
656.2	670.6
656.4	666.4
656.6	663.4
656.8	658.0
657.0	652.0
657.2	648.3
657.4	643.9
657.6	639.4
657.8	635.4
658.0	630.4
658.2	624.9
658.4	620.4
658.6	616.3
658.8	613.4
659.0	609.1
659.2	605.3
659.4	600.5
659.6	596.0
659.8	591.1
660.0	589.6
660.2	584.6
660.4	580.7
660.6	577.4
660.8	574.5
661.0	570.7
661.2	568.0
661.4	562.1
661.6	557.9
661.8	554.7
662.0	549.9
662.2	544.4
662.4	540.6
662.6	536.2
662.8	533.6
663.0	530.6
663.2	526.3
663.4	520.9
663.6	517.7
663.8	515.1
664.0	512.6
664.2	509.1
664.4	506.1
664.6	500.9
664.8	496.6
665.0	493.0
665.2	489.6
665.4	486.8
665.6	485.1
665.8	482.0
666.0	479.8
666.2	476.7
666.4	472.4
666.6	467.7
666.8	463.1
667.0	459.9
667.2	457.2
667.4	455.2
667.6	452.8
667.8	448.8
668.0	444.5
668.2	441.7
668.4	439.1
668.6	436.5
668.8	433.8
669.0	428.8
669.2	425.3
669.4	422.2
669.6	419.8
669.8	418.0
670.0	414.7
670.2	411.5
670.4	409.3
670.6	406.0
670.8	403.0
671.0	400.9
671.2	398.1
671.4	395.7
671.6	392.4
671.8	387.8
672.0	384.1
672.2	381.7
672.4	379.2
672.6	376.3
672.8	373.1
673.0	370.0
673.2	368.9
673.4	368.0
673.6	366.1
673.8	363.7
674.0	359.2
674.2	354.8
674.4	352.3
674.6	349.3
674.8	347.9
675.0	345.9
675.2	343.6
675.4	341.2
675.6	339.6
675.8	336.1
676.0	333.4
676.2	330.8
676.4	328.9
676.6	326.2
676.8	324.0
677.0	320.7
677.2	318.3
677.4	316.2
677.6	314.0
677.8	310.7
678.0	308.2
678.2	305.7
678.4	304.1
678.6	302.6
678.8	300.8
679.0	299.5
679.2	298.0
679.4	296.1
679.6	294.0
679.8	291.8
680.0	289.3
680.2	287.0
680.4	284.7
680.6	282.5
680.8	279.5
681.0	277.3
681.2	275.4
681.4	273.1
681.6	271.2
681.8	269.2
682.0	267.9
682.2	266.1
682.4	265.0
682.6	262.9
682.8	260.4
683.0	258.1
683.2	257.4
683.4	255.0
683.6	252.8
683.8	250.4
684.0	248.8
684.2	247.4
684.4	246.9
684.6	244.6
684.8	241.8
685.0	239.5
685.2	238.2
685.4	236.3
685.6	234.7
685.8	231.7
686.0	229.2
686.2	227.6
686.4	226.6
686.6	225.8
686.8	224.9
687.0	223.4
687.2	221.9
687.4	220.2
687.6	218.7
687.8	217.7
688.0	216.5
688.2	214.8
688.4	213.4
688.6	211.9
688.8	210.3
689.0	208.8
689.2	207.2
689.4	204.2
689.6	202.2
689.8	200.6
690.0	199.5
690.2	197.9
690.4	197.1
690.6	195.3
690.8	194.0
691.0	192.6
691.2	192.1
691.4	190.6
691.6	189.7
691.8	188.4
692.0	186.8
692.2	185.8
692.4	185.2
692.6	184.1
692.8	183.2
693.0	181.3
693.2	179.1
693.4	177.2
693.6	175.8
693.8	174.9
694.0	174.8
694.2	173.8
694.4	172.6
694.6	171.4
694.8	170.2
695.0	168.7
695.2	167.6
695.4	166.3
695.6	165.0
695.8	164.2
696.0	162.8
696.2	161.1
696.4	159.5
696.6	158.5
696.8	157.7
697.0	157.0
697.2	156.6
697.4	155.5
697.6	154.0
697.8	153.6
698.0	152.4
698.2	151.0
698.4	150.5
698.6	149.4
698.8	148.4
699.0	148.0
699.2	146.9
699.4	146.0
699.6	145.3
699.8	144.0
700.0	142.9
700.2	141.9
700.4	140.6
700.6	139.6
700.8	138.6
701.0	138.3
701.2	138.3
701.4	138.0
701.6	137.1
701.8	136.0
702.0	134.9
702.2	134.4
702.4	133.2
702.6	132.1
702.8	131.2
703.0	129.6
703.2	128.7
703.4	128.0
703.6	127.5
703.8	127.4
704.0	127.1
704.2	125.4
704.4	124.5
704.6	123.9
704.8	123.3
705.0	122.4
705.2	121.6
705.4	120.5
705.6	119.7
705.8	119.3
706.0	118.4
706.2	117.9
706.4	117.0
706.6	115.9
706.8	115.1
707.0	114.4
707.2	113.5
707.4	112.9
707.6	111.7
707.8	110.7
708.0	110.3
708.2	110.0
708.4	109.7
708.6	109.3
708.8	108.6
709.0	107.7
709.2	106.4
709.4	105.5
709.6	104.9
709.8	104.6
710.0	103.8
710.2	102.6
710.4	101.4
710.6	100.3
710.8	99.61
711.0	99.63
711.2	99.33
711.4	98.94
711.6	98.60
711.8	97.85
712.0	97.56
712.2	97.35
712.4	97.39
712.6	96.76
712.8	96.01
713.0	95.21
713.2	94.38
713.4	93.30
713.6	92.20
713.8	90.94
714.0	90.55
714.2	89.83
714.4	89.20
714.6	88.32
714.8	87.42
715.0	86.90
715.2	86.99
715.4	86.57
715.6	86.16
715.8	85.42
716.0	85.14
716.2	84.74
716.4	84.20
716.6	83.24
716.8	82.61
717.0	81.70
717.2	81.19
717.4	79.76
717.6	78.98
717.8	78.09
718.0	77.81
718.2	77.70
718.4	78.09
718.6	77.44
718.8	76.90
719.0	75.68
719.2	74.47
719.4	73.49
719.6	73.51
719.8	73.40
720.0	72.75
720.2	72.16
720.4	71.75
720.6	70.96
720.8	70.83
721.0	70.49
721.2	69.66
721.4	68.97
721.6	68.70
721.8	68.32
722.0	67.98
722.2	67.32
722.4	66.53
722.6	65.78
722.8	65.60
723.0	65.31
723.2	64.53
723.4	63.97
723.6	63.73
723.8	63.27
724.0	62.75
724.2	62.17
724.4	61.13
724.6	60.81
724.8	60.67
725.0	60.51
725.2	60.01
725.4	59.35
725.6	58.67
725.8	58.17
726.0	57.65
726.2	57.36
726.4	57.09
726.6	56.62
726.8	56.37
727.0	55.81
727.2	55.34
727.4	54.91
727.6	54.85
727.8	54.48
728.0	53.91
728.2	53.37
728.4	52.91
728.6	52.78
728.8	52.36
729.0	51.41
729.2	50.63
729.4	50.33
729.6	50.05
729.8	50.27
730.0	50.18
730.2	49.82
730.4	49.52
730.6	49.14
730.8	48.71
731.0	48.37
731.2	47.89
731.4	47.26
731.6	46.89
731.8	46.45
732.0	45.89
732.2	45.69
732.4	45.33
732.6	44.95
732.8	44.95
733.0	44.78
733.2	44.42
733.4	44.27
733.6	43.91
733.8	43.25
734.0	42.98
734.2	42.55
734.4	42.42
734.6	42.09
734.8	41.57
735.0	40.92
735.2	40.63
735.4	40.34
735.6	40.18
735.8	39.92
736.0	39.50
736.2	39.33
736.4	39.18
736.6	39.06
736.8	38.54
737.0	38.26
737.2	37.90
737.4	37.70
737.6	37.45
737.8	37.23
738.0	36.79
738.2	36.82
738.4	36.54
738.6	36.17
738.8	35.86
739.0	35.37
739.2	35.15
739.4	34.87
739.6	34.63
739.8	34.31
740.0	34.15
740.2	33.67
740.4	33.52
740.6	33.05
740.8	32.89
741.0	32.78
741.2	32.60
741.4	32.08
741.6	31.72
741.8	31.48
742.0	31.27
742.2	31.29
742.4	31.05
742.6	30.71
742.8	30.57
743.0	30.54
743.2	30.19
743.4	29.70
743.6	29.53
743.8	29.22
744.0	29.30
744.2	29.25
744.4	29.01
744.6	28.80
744.8	28.84
745.0	28.64
745.2	28.48
745.4	28.15
745.6	27.88
745.8	27.38
746.0	26.96
746.2	26.86
746.4	26.86
746.6	26.91
746.8	26.88
747.0	26.35
747.2	25.97
747.4	25.80
747.6	25.77
747.8	25.67
748.0	25.52
748.2	25.39
748.4	25.28
748.6	25.12
748.8	24.99
749.0	24.82
749.2	24.42
749.4	24.13
749.6	23.79
749.8	23.67
750.0	23.48
750.2	23.35
750.4	23.30
750.6	23.47
750.8	23.48
751.0	23.42
751.2	23.06
751.4	22.75
751.6	22.62
751.8	22.50
752.0	22.22
752.2	21.88
752.4	21.55
752.6	21.37
752.8	21.27
753.0	21.30
753.2	21.35
753.4	21.23
753.6	21.17
753.8	20.86
754.0	20.53
754.2	20.51
754.4	20.37
754.6	20.25
754.8	20.35
755.0	20.10
755.2	19.71
755.4	19.55
755.6	19.32
755.8	19.09
756.0	19.13
756.2	19.14
756.4	19.05
756.6	19.19
756.8	18.96
757.0	18.68
757.2	18.55
757.4	18.37
757.6	18.15
757.8	18.07
758.0	17.78
758.2	17.77
758.4	17.75
758.6	17.69
758.8	17.47
759.0	17.28
759.2	16.90
759.4	16.74
759.6	16.59
759.8	16.47
760.0	16.41
760.2	16.27
760.4	16.06
760.6	15.89
760.8	15.87
761.0	15.97
761.2	16.10
761.4	16.25
761.6	16.16
761.8	15.70
762.0	15.40
762.2	15.17
762.4	15.09
762.6	15.34
762.8	15.30
763.0	14.90
763.2	14.79
763.4	14.64
763.6	14.51
763.8	14.54
764.0	14.26
764.2	14.03
764.4	14.13
764.6	14.04
764.8	14.06
765.0	14.14
765.2	14.04
765.4	13.95
765.6	13.88
765.8	13.70
766.0	13.72
766.2	13.71
766.4	13.62
766.6	13.42
766.8	13.16
767.0	13.01
767.2	12.93
767.4	12.91
767.6	12.81
767.8	12.64
768.0	12.36
768.2	12.26
768.4	12.16
768.6	12.33
768.8	12.34
769.0	12.36
769.2	12.20
769.4	12.22
769.6	12.09
769.8	11.99
770.0	11.82
770.2	11.81
770.4	11.59
770.6	11.74
770.8	11.73
771.0	11.61
771.2	11.50
771.4	11.43
771.6	11.16
771.8	11.28
772.0	11.29
772.2	11.30
772.4	11.36
772.6	11.34
772.8	11.09
773.0	11.05
773.2	10.90
773.4	10.82
773.6	10.69
773.8	10.56
774.0	10.47
774.2	10.45
774.4	10.28
774.6	10.14
774.8	9.967
775.0	9.905
775.2	9.985
775.4	10.06
775.6	9.986
775.8	9.967
776.0	9.853
776.2	9.674
776.4	9.620
776.6	9.570
776.8	9.571
777.0	9.766
777.2	9.684
777.4	9.460
777.6	9.467
777.8	9.321
778.0	9.273
778.2	9.388
778.4	9.471
778.6	9.457
778.8	9.487
779.0	9.508
779.2	9.519
779.4	9.470
779.6	9.434
779.8	9.444
780.0	9.204
780.2	9.266
780.4	9.185
780.6	9.207
780.8	9.222
781.0	9.277
781.2	9.269
781.4	9.440
781.6	9.390
781.8	9.515
782.0	9.582
782.2	9.683
782.4	9.870
782.6	9.907
782.8	9.793
783.0	9.731
783.2	9.692
783.4	9.726
783.6	9.881
783.8	9.998
784.0	10.06
784.2	10.30
784.4	10.43
784.6	10.63
784.8	10.94
785.0	11.46
785.2	11.70
785.4	11.99
785.6	12.11
785.8	12.17
786.0	12.17
786.2	12.47
786.4	12.42
786.6	12.49
786.8	12.74
787.0	12.82
787.2	12.98
787.4	13.43
787.6	13.86
787.8	14.51
788.0	15.11
788.2	15.38
788.4	15.59
788.6	15.72
788.8	15.88
789.0	16.15
789.2	16.44
789.4	16.73
789.6	17.11
789.8	17.38
790.0	17.69
790.2	18.02
790.4	18.38
790.6	18.87
790.8	19.28
791.0	19.67
791.2	19.98
791.4	20.26
791.6	20.34
791.8	20.57
792.0	20.77
792.2	21.06
792.4	21.35
792.6	22.00
792.8	22.49
793.0	23.22
793.2	23.79
793.4	23.83
793.6	23.77
793.8	23.86
794.0	24.04
794.2	24.35
794.4	25.01
794.6	25.39
794.8	25.69
795.0	25.66
795.2	25.84
795.4	26.01
795.6	26.38
795.8	26.79
796.0	27.01
796.2	26.83
796.4	27.06
796.6	27.66
796.8	28.16
797.0	28.33
797.2	28.38
797.4	28.41
797.6	28.58
797.8	29.23
798.0	29.72
798.2	29.42
798.4	29.21
798.6	29.17
798.8	29.02
799.0	29.32
799.2	29.62
799.4	29.50
799.6	29.53
799.8	29.73
800.0	29.91
800.2	30.17
800.4	30.22
800.6	30.01
800.8	29.92
801.0	29.86
801.2	29.83
801.4	29.78
801.6	29.54
801.8	29.46
802.0	29.45
802.2	29.62
802.4	29.32
802.6	29.07
802.8	28.64
803.0	28.28
803.2	28.07
803.4	28.37
803.6	28.38
803.8	28.61
804.0	28.69
804.2	28.70
804.4	28.54
804.6	28.08
804.8	27.69
805.0	27.48
805.2	27.30
805.4	27.18
805.6	26.77
805.8	26.18
806.0	25.91
806.2	25.92
806.4	25.68
806.6	25.46
806.8	25.08
807.0	24.73
807.2	24.50
807.4	24.51
807.6	24.13
807.8	24.00
808.0	23.75
808.2	23.23
808.4	22.96
808.6	22.83
808.8	22.45
809.0	22.05
809.2	21.66
809.4	21.23
809.6	21.12
809.8	21.02
810.0	20.93
810.2	20.27
810.4	19.94
810.6	19.43
810.8	18.94
811.0	18.64
811.2	18.52
811.4	18.11
811.6	17.95
811.8	17.54
812.0	17.26
812.2	17.04
812.4	16.91
812.6	16.70
812.8	16.18
813.0	15.82
813.2	15.53
813.4	15.09
813.6	14.93
813.8	14.77
814.0	14.32
814.2	14.11
814.4	13.85
814.6	13.28
814.8	13.10
815.0	12.66
815.2	12.19
815.4	11.91
815.6	11.81
815.8	11.50
816.0	11.50
816.2	11.01
816.4	10.57
816.6	10.36
816.8	10.26
817.0	10.17
817.2	10.14
817.4	9.897
817.6	9.674
817.8	9.369
818.0	9.057
818.2	8.750
818.4	8.407
818.6	8.161
818.8	7.940
819.0	7.750
819.2	7.650
819.4	7.495
819.6	7.273
819.8	7.122
820.0	6.895
820.2	6.814
820.4	6.738
820.6	6.542
820.8	6.348
821.0	6.134
821.2	6.068
821.4	6.111
821.6	5.992
821.8	5.796
822.0	5.674
822.2	5.415
822.4	5.352
822.6	5.260
822.8	5.212
823.0	5.107
823.2	5.076
823.4	4.944
823.6	4.881
823.8	4.710
824.0	4.629
824.2	4.494
824.4	4.486
824.6	4.475
824.8	4.459
825.0	4.379
825.2	4.190
825.4	4.059
825.6	3.964
825.8	3.923
826.0	3.886
826.2	3.847
826.4	3.731
826.6	3.635
826.8	3.589
827.0	3.666
827.2	3.744
827.4	3.698
827.6	3.657
827.8	3.631
828.0	3.651
828.2	3.697
828.4	3.653
828.6	3.567
828.8	3.457
829.0	3.347
829.2	3.287
829.4	3.298
829.6	3.380
829.8	3.432
830.0	3.469
830.2	3.339
830.4	3.309
830.6	3.200
830.8	3.218
831.0	3.159
831.2	3.192
831.4	3.133
831.6	3.251
831.8	3.264
832.0	3.304
832.2	3.220
832.4	3.144
832.6	3.105
832.8	3.129
833.0	3.076
833.2	3.022
833.4	2.918
833.6	2.827
833.8	2.838
834.0	2.894
834.2	2.932
834.4	2.892
834.6	2.900
834.8	2.843
835.0	2.819
835.2	2.863
835.4	2.902
835.6	2.838
835.8	2.829
836.0	2.761
836.2	2.760
836.4	2.873
836.6	2.893
836.8	2.825
837.0	2.700
837.2	2.617
837.4	2.601
837.6	2.674
837.8	2.702
838.0	2.666
838.2	2.577
838.4	2.638
838.6	2.629
838.8	2.658
839.0	2.659
839.2	2.631
839.4	2.606
839.6	2.660
839.8	2.676
840.0	2.645
840.2	2.583
840.4	2.528
840.6	2.536
840.8	2.558
841.0	2.602
841.2	2.554
841.4	2.426
841.6	2.442
841.8	2.409
842.0	2.445
842.2	2.488
842.4	2.453
842.6	2.402
842.8	2.477
843.0	2.497
843.2	2.547
843.4	2.472
843.6	2.382
843.8	2.312
844.0	2.288
844.2	2.257
844.4	2.283
844.6	2.253
844.8	2.238
845.0	2.194
845.2	2.223
845.4	2.222
845.6	2.315
845.8	2.374
846.0	2.384
846.2	2.315
846.4	2.240
846.6	2.243
846.8	2.221
847.0	2.223
847.2	2.185
847.4	2.121
847.6	2.077
847.8	2.126
848.0	2.099
848.2	2.097
848.4	2.032
848.6	2.071
848.8	2.091
849.0	2.071
849.2	2.032
849.4	2.040
849.6	2.055
849.8	2.076
850.0	2.094

