Sample:	'20211010A(EM)
File name:	G-Ni-CDS-100-S2- 20h.FDS
Run date:	'09:44:26, 03/23/2023
Operator:	Administrator
Comment:	'

Instrument
Model:	F-4700 FL Spectrophotometer
Serial number:	2019-001
ROM Version:	5J24010 00

Instrument parameters
Measurement type:	Wavelength scan
Scan mode:	Emission
Data mode:	Fluorescence
EX WL:	400.0 nm
EM  Start WL:	420.0 nm
EM  End WL:	850.0 nm
Scan speed:	1200 nm/min
Delay:	0.0 s
EX Slit:	10.0 nm
EM Slit:	10.0 nm
PMT Voltage:	450 V
Response:	0.002 s
Corrected spectra:	Off
Shutter control:	On

Processing performed
Savitsky-Golay smoothed
Smoothing order:	3
Number of points:	7
Number of times:	1

Peak integration
Integration method:	Rectangular
Sensitivity:	1
Threshold:	1.000

Peaks
No.	Start(nm)	Apex(nm)	End(nm)	Height(Data)	Valley(nm)	Valley(Data)
1	420.0	545.8	782.0	6796	782.0	7.764
2	782.0	799.4	850.0	13.02	850.0	1.863

Data points
nm	Data
420.0	3.094
420.2	2.986
420.4	3.006
420.6	3.078
420.8	3.104
421.0	3.034
421.2	2.898
421.4	2.836
421.6	3.000
421.8	3.168
422.0	3.153
422.2	3.124
422.4	3.064
422.6	2.941
422.8	2.978
423.0	3.100
423.2	3.125
423.4	3.184
423.6	3.182
423.8	3.138
424.0	3.118
424.2	3.081
424.4	3.116
424.6	3.144
424.8	3.037
425.0	3.121
425.2	3.127
425.4	3.136
425.6	3.155
425.8	3.211
426.0	3.209
426.2	3.245
426.4	3.221
426.6	3.256
426.8	3.168
427.0	3.190
427.2	3.187
427.4	3.242
427.6	3.300
427.8	3.303
428.0	3.234
428.2	3.239
428.4	3.216
428.6	3.273
428.8	3.247
429.0	3.157
429.2	3.221
429.4	3.255
429.6	3.355
429.8	3.438
430.0	3.410
430.2	3.407
430.4	3.549
430.6	3.582
430.8	3.588
431.0	3.510
431.2	3.450
431.4	3.425
431.6	3.427
431.8	3.488
432.0	3.461
432.2	3.492
432.4	3.602
432.6	3.639
432.8	3.626
433.0	3.643
433.2	3.513
433.4	3.579
433.6	3.653
433.8	3.714
434.0	3.779
434.2	3.835
434.4	3.718
434.6	3.624
434.8	3.588
435.0	3.604
435.2	3.734
435.4	3.822
435.6	3.827
435.8	3.829
436.0	3.821
436.2	3.850
436.4	3.920
436.6	3.942
436.8	3.993
437.0	4.056
437.2	4.109
437.4	4.138
437.6	4.123
437.8	4.049
438.0	4.018
438.2	4.105
438.4	4.256
438.6	4.358
438.8	4.359
439.0	4.219
439.2	4.215
439.4	4.271
439.6	4.372
439.8	4.418
440.0	4.408
440.2	4.361
440.4	4.458
440.6	4.665
440.8	4.864
441.0	4.942
441.2	5.031
441.4	4.972
441.6	4.907
441.8	4.993
442.0	5.057
442.2	5.012
442.4	5.123
442.6	5.113
442.8	5.141
443.0	5.295
443.2	5.407
443.4	5.526
443.6	5.597
443.8	5.658
444.0	5.682
444.2	5.781
444.4	5.820
444.6	5.976
444.8	5.993
445.0	6.141
445.2	6.075
445.4	6.144
445.6	6.190
445.8	6.258
446.0	6.321
446.2	6.422
446.4	6.513
446.6	6.623
446.8	6.659
447.0	6.759
447.2	6.862
447.4	6.974
447.6	7.199
447.8	7.337
448.0	7.412
448.2	7.477
448.4	7.448
448.6	7.488
448.8	7.513
449.0	7.554
449.2	7.637
449.4	7.715
449.6	7.813
449.8	8.023
450.0	8.097
450.2	8.218
450.4	8.289
450.6	8.376
450.8	8.529
451.0	8.649
451.2	8.857
451.4	9.229
451.6	9.582
451.8	9.703
452.0	9.657
452.2	9.682
452.4	9.557
452.6	9.490
452.8	9.706
453.0	9.786
453.2	10.01
453.4	10.37
453.6	10.37
453.8	10.57
454.0	10.85
454.2	10.95
454.4	11.30
454.6	11.53
454.8	11.54
455.0	11.62
455.2	11.58
455.4	11.57
455.6	11.65
455.8	12.04
456.0	12.33
456.2	12.74
456.4	13.18
456.6	13.40
456.8	13.22
457.0	13.32
457.2	13.24
457.4	13.40
457.6	13.57
457.8	13.84
458.0	14.04
458.2	14.29
458.4	14.31
458.6	14.47
458.8	14.76
459.0	15.03
459.2	15.12
459.4	15.18
459.6	15.43
459.8	15.82
460.0	16.17
460.2	16.44
460.4	16.42
460.6	16.64
460.8	17.27
461.0	17.61
461.2	17.62
461.4	17.96
461.6	18.05
461.8	18.43
462.0	19.00
462.2	19.37
462.4	19.50
462.6	19.61
462.8	19.86
463.0	20.02
463.2	20.43
463.4	20.92
463.6	21.48
463.8	21.98
464.0	22.32
464.2	22.43
464.4	22.63
464.6	23.13
464.8	23.77
465.0	24.39
465.2	24.75
465.4	25.11
465.6	25.62
465.8	26.13
466.0	26.64
466.2	27.31
466.4	27.99
466.6	28.26
466.8	28.88
467.0	29.16
467.2	29.73
467.4	30.55
467.6	31.23
467.8	31.43
468.0	32.24
468.2	32.93
468.4	33.79
468.6	34.58
468.8	35.21
469.0	35.63
469.2	36.71
469.4	37.73
469.6	38.72
469.8	39.84
470.0	40.68
470.2	41.57
470.4	42.60
470.6	43.10
470.8	43.58
471.0	44.66
471.2	45.76
471.4	47.18
471.6	48.72
471.8	49.81
472.0	50.89
472.2	52.26
472.4	53.22
472.6	54.14
472.8	55.52
473.0	56.84
473.2	58.50
473.4	60.11
473.6	61.70
473.8	63.12
474.0	64.78
474.2	66.06
474.4	67.37
474.6	68.92
474.8	70.49
475.0	72.71
475.2	74.99
475.4	76.85
475.6	78.90
475.8	81.07
476.0	82.81
476.2	84.81
476.4	86.85
476.6	88.25
476.8	90.56
477.0	92.90
477.2	95.28
477.4	97.45
477.6	100.0
477.8	102.3
478.0	105.5
478.2	109.0
478.4	111.8
478.6	114.7
478.8	117.5
479.0	120.8
479.2	124.0
479.4	127.3
479.6	130.2
479.8	133.1
480.0	136.7
480.2	140.5
480.4	144.6
480.6	148.9
480.8	152.0
481.0	154.7
481.2	158.0
481.4	161.4
481.6	166.3
481.8	171.2
482.0	175.5
482.2	180.1
482.4	183.9
482.6	188.6
482.8	193.5
483.0	198.6
483.2	203.7
483.4	208.8
483.6	213.3
483.8	219.1
484.0	224.5
484.2	230.7
484.4	235.9
484.6	241.8
484.8	247.6
485.0	254.4
485.2	260.4
485.4	267.0
485.6	273.8
485.8	281.5
486.0	287.8
486.2	295.0
486.4	300.7
486.6	307.7
486.8	314.4
487.0	323.0
487.2	330.3
487.4	338.2
487.6	345.8
487.8	354.0
488.0	361.7
488.2	370.3
488.4	379.5
488.6	388.9
488.8	398.0
489.0	407.7
489.2	417.4
489.4	426.3
489.6	436.3
489.8	446.2
490.0	456.1
490.2	467.3
490.4	478.4
490.6	489.9
490.8	500.3
491.0	511.9
491.2	522.9
491.4	533.5
491.6	546.4
491.8	559.9
492.0	572.7
492.2	585.9
492.4	598.1
492.6	609.8
492.8	621.5
493.0	634.5
493.2	647.3
493.4	660.4
493.6	675.5
493.8	690.2
494.0	705.7
494.2	720.9
494.4	735.3
494.6	751.1
494.8	767.9
495.0	782.1
495.2	798.6
495.4	814.1
495.6	829.2
495.8	847.6
496.0	864.1
496.2	881.2
496.4	897.3
496.6	916.7
496.8	935.5
497.0	955.2
497.2	972.3
497.4	991.0
497.6	1007
497.8	1025
498.0	1044
498.2	1064
498.4	1085
498.6	1106
498.8	1126
499.0	1146
499.2	1166
499.4	1188
499.6	1211
499.8	1234
500.0	1257
500.2	1281
500.4	1302
500.6	1326
500.8	1347
501.0	1369
501.2	1395
501.4	1421
501.6	1444
501.8	1470
502.0	1492
502.2	1516
502.4	1542
502.6	1567
502.8	1589
503.0	1614
503.2	1637
503.4	1666
503.6	1695
503.8	1722
504.0	1747
504.2	1774
504.4	1800
504.6	1830
504.8	1858
505.0	1886
505.2	1913
505.4	1941
505.6	1968
505.8	1998
506.0	2027
506.2	2056
506.4	2086
506.6	2117
506.8	2147
507.0	2182
507.2	2211
507.4	2240
507.6	2269
507.8	2299
508.0	2330
508.2	2364
508.4	2397
508.6	2432
508.8	2463
509.0	2492
509.2	2520
509.4	2551
509.6	2585
509.8	2620
510.0	2652
510.2	2685
510.4	2715
510.6	2748
510.8	2780
511.0	2815
511.2	2849
511.4	2885
511.6	2918
511.8	2951
512.0	2984
512.2	3022
512.4	3055
512.6	3086
512.8	3114
513.0	3149
513.2	3184
513.4	3224
513.6	3260
513.8	3290
514.0	3325
514.2	3360
514.4	3394
514.6	3429
514.8	3459
515.0	3489
515.2	3522
515.4	3556
515.6	3595
515.8	3632
516.0	3664
516.2	3697
516.4	3728
516.6	3761
516.8	3799
517.0	3838
517.2	3876
517.4	3911
517.6	3944
517.8	3980
518.0	4014
518.2	4048
518.4	4077
518.6	4107
518.8	4142
519.0	4179
519.2	4211
519.4	4246
519.6	4278
519.8	4314
520.0	4351
520.2	4392
520.4	4427
520.6	4461
520.8	4493
521.0	4525
521.2	4557
521.4	4590
521.6	4619
521.8	4644
522.0	4674
522.2	4707
522.4	4744
522.6	4783
522.8	4816
523.0	4843
523.2	4869
523.4	4895
523.6	4923
523.8	4956
524.0	4985
524.2	5014
524.4	5045
524.6	5077
524.8	5109
525.0	5144
525.2	5174
525.4	5202
525.6	5229
525.8	5257
526.0	5285
526.2	5317
526.4	5344
526.6	5373
526.8	5400
527.0	5427
527.2	5454
527.4	5481
527.6	5504
527.8	5532
528.0	5555
528.2	5582
528.4	5609
528.6	5638
528.8	5663
529.0	5691
529.2	5714
529.4	5735
529.6	5756
529.8	5780
530.0	5806
530.2	5834
530.4	5857
530.6	5877
530.8	5897
531.0	5923
531.2	5946
531.4	5971
531.6	5995
531.8	6014
532.0	6036
532.2	6059
532.4	6074
532.6	6096
532.8	6116
533.0	6137
533.2	6159
533.4	6176
533.6	6191
533.8	6202
534.0	6217
534.2	6239
534.4	6258
534.6	6280
534.8	6300
535.0	6317
535.2	6336
535.4	6350
535.6	6363
535.8	6375
536.0	6390
536.2	6406
536.4	6420
536.6	6432
536.8	6442
537.0	6454
537.2	6470
537.4	6487
537.6	6504
537.8	6519
538.0	6529
538.2	6543
538.4	6554
538.6	6562
538.8	6564
539.0	6568
539.2	6576
539.4	6595
539.6	6613
539.8	6626
540.0	6635
540.2	6644
540.4	6653
540.6	6670
540.8	6683
541.0	6689
541.2	6696
541.4	6700
541.6	6707
541.8	6715
542.0	6723
542.2	6725
542.4	6724
542.6	6726
542.8	6729
543.0	6732
543.2	6738
543.4	6741
543.6	6742
543.8	6745
544.0	6747
544.2	6751
544.4	6758
544.6	6767
544.8	6772
545.0	6773
545.2	6779
545.4	6785
545.6	6794
545.8	6796
546.0	6796
546.2	6791
546.4	6792
546.6	6793
546.8	6793
547.0	6786
547.2	6786
547.4	6781
547.6	6779
547.8	6776
548.0	6777
548.2	6775
548.4	6773
548.6	6771
548.8	6766
549.0	6762
549.2	6761
549.4	6754
549.6	6752
549.8	6753
550.0	6755
550.2	6751
550.4	6747
550.6	6739
550.8	6733
551.0	6729
551.2	6728
551.4	6718
551.6	6714
551.8	6711
552.0	6705
552.2	6697
552.4	6694
552.6	6687
552.8	6683
553.0	6678
553.2	6676
553.4	6667
553.6	6658
553.8	6644
554.0	6633
554.2	6620
554.4	6616
554.6	6612
554.8	6606
555.0	6595
555.2	6583
555.4	6572
555.6	6566
555.8	6559
556.0	6547
556.2	6533
556.4	6517
556.6	6510
556.8	6506
557.0	6502
557.2	6491
557.4	6476
557.6	6462
557.8	6453
558.0	6444
558.2	6436
558.4	6424
558.6	6415
558.8	6402
559.0	6393
559.2	6380
559.4	6363
559.6	6354
559.8	6343
560.0	6327
560.2	6319
560.4	6301
560.6	6289
560.8	6276
561.0	6259
561.2	6242
561.4	6229
561.6	6216
561.8	6209
562.0	6200
562.2	6190
562.4	6182
562.6	6171
562.8	6159
563.0	6146
563.2	6128
563.4	6109
563.6	6097
563.8	6080
564.0	6069
564.2	6055
564.4	6034
564.6	6021
564.8	6004
565.0	5990
565.2	5976
565.4	5954
565.6	5933
565.8	5919
566.0	5904
566.2	5896
566.4	5883
566.6	5870
566.8	5854
567.0	5836
567.2	5819
567.4	5806
567.6	5797
567.8	5787
568.0	5765
568.2	5744
568.4	5726
568.6	5711
568.8	5699
569.0	5687
569.2	5670
569.4	5653
569.6	5638
569.8	5622
570.0	5602
570.2	5582
570.4	5561
570.6	5545
570.8	5532
571.0	5522
571.2	5509
571.4	5493
571.6	5474
571.8	5456
572.0	5441
572.2	5422
572.4	5406
572.6	5389
572.8	5369
573.0	5348
573.2	5329
573.4	5310
573.6	5296
573.8	5286
574.0	5273
574.2	5255
574.4	5235
574.6	5214
574.8	5196
575.0	5185
575.2	5170
575.4	5153
575.6	5139
575.8	5123
576.0	5108
576.2	5089
576.4	5071
576.6	5055
576.8	5036
577.0	5018
577.2	5002
577.4	4984
577.6	4973
577.8	4958
578.0	4942
578.2	4921
578.4	4904
578.6	4886
578.8	4871
579.0	4852
579.2	4840
579.4	4826
579.6	4812
579.8	4794
580.0	4772
580.2	4746
580.4	4725
580.6	4709
580.8	4693
581.0	4680
581.2	4666
581.4	4648
581.6	4631
581.8	4616
582.0	4601
582.2	4582
582.4	4567
582.6	4548
582.8	4531
583.0	4514
583.2	4499
583.4	4481
583.6	4469
583.8	4453
584.0	4438
584.2	4420
584.4	4399
584.6	4381
584.8	4365
585.0	4348
585.2	4335
585.4	4319
585.6	4298
585.8	4280
586.0	4263
586.2	4244
586.4	4230
586.6	4217
586.8	4200
587.0	4187
587.2	4174
587.4	4156
587.6	4138
587.8	4121
588.0	4102
588.2	4087
588.4	4070
588.6	4057
588.8	4040
589.0	4025
589.2	4006
589.4	3988
589.6	3971
589.8	3958
590.0	3941
590.2	3927
590.4	3909
590.6	3892
590.8	3875
591.0	3862
591.2	3845
591.4	3831
591.6	3816
591.8	3798
592.0	3781
592.2	3765
592.4	3747
592.6	3731
592.8	3717
593.0	3701
593.2	3688
593.4	3674
593.6	3658
593.8	3639
594.0	3622
594.2	3606
594.4	3591
594.6	3580
594.8	3566
595.0	3549
595.2	3533
595.4	3519
595.6	3501
595.8	3486
596.0	3467
596.2	3454
596.4	3443
596.6	3432
596.8	3416
597.0	3398
597.2	3379
597.4	3366
597.6	3355
597.8	3339
598.0	3322
598.2	3303
598.4	3288
598.6	3275
598.8	3260
599.0	3244
599.2	3230
599.4	3216
599.6	3206
599.8	3193
600.0	3182
600.2	3168
600.4	3149
600.6	3134
600.8	3118
601.0	3105
601.2	3096
601.4	3081
601.6	3064
601.8	3049
602.0	3033
602.2	3021
602.4	3008
602.6	2998
602.8	2982
603.0	2964
603.2	2947
603.4	2931
603.6	2915
603.8	2906
604.0	2893
604.2	2878
604.4	2864
604.6	2852
604.8	2840
605.0	2825
605.2	2808
605.4	2793
605.6	2780
605.8	2768
606.0	2757
606.2	2744
606.4	2729
606.6	2716
606.8	2703
607.0	2686
607.2	2670
607.4	2656
607.6	2644
607.8	2632
608.0	2625
608.2	2611
608.4	2594
608.6	2583
608.8	2566
609.0	2551
609.2	2540
609.4	2522
609.6	2508
609.8	2497
610.0	2484
610.2	2473
610.4	2462
610.6	2448
610.8	2437
611.0	2426
611.2	2415
611.4	2399
611.6	2385
611.8	2369
612.0	2360
612.2	2349
612.4	2338
612.6	2321
612.8	2306
613.0	2293
613.2	2285
613.4	2273
613.6	2261
613.8	2248
614.0	2237
614.2	2229
614.4	2218
614.6	2203
614.8	2188
615.0	2175
615.2	2163
615.4	2156
615.6	2144
615.8	2130
616.0	2116
616.2	2105
616.4	2095
616.6	2086
616.8	2073
617.0	2061
617.2	2050
617.4	2037
617.6	2027
617.8	2014
618.0	2002
618.2	1991
618.4	1981
618.6	1971
618.8	1963
619.0	1952
619.2	1940
619.4	1927
619.6	1914
619.8	1903
620.0	1894
620.2	1885
620.4	1875
620.6	1863
620.8	1849
621.0	1837
621.2	1827
621.4	1816
621.6	1805
621.8	1794
622.0	1782
622.2	1772
622.4	1764
622.6	1757
622.8	1748
623.0	1738
623.2	1728
623.4	1715
623.6	1706
623.8	1696
624.0	1687
624.2	1676
624.4	1666
624.6	1652
624.8	1642
625.0	1635
625.2	1627
625.4	1616
625.6	1606
625.8	1592
626.0	1582
626.2	1575
626.4	1566
626.6	1558
626.8	1549
627.0	1538
627.2	1528
627.4	1518
627.6	1510
627.8	1504
628.0	1492
628.2	1483
628.4	1472
628.6	1466
628.8	1460
629.0	1454
629.2	1444
629.4	1434
629.6	1423
629.8	1413
630.0	1403
630.2	1393
630.4	1384
630.6	1375
630.8	1368
631.0	1360
631.2	1353
631.4	1345
631.6	1337
631.8	1329
632.0	1321
632.2	1312
632.4	1304
632.6	1296
632.8	1289
633.0	1281
633.2	1273
633.4	1265
633.6	1256
633.8	1246
634.0	1240
634.2	1233
634.4	1224
634.6	1219
634.8	1211
635.0	1203
635.2	1195
635.4	1188
635.6	1179
635.8	1174
636.0	1168
636.2	1159
636.4	1150
636.6	1143
636.8	1136
637.0	1128
637.2	1122
637.4	1114
637.6	1108
637.8	1102
638.0	1096
638.2	1088
638.4	1081
638.6	1073
638.8	1066
639.0	1059
639.2	1053
639.4	1046
639.6	1039
639.8	1033
640.0	1026
640.2	1019
640.4	1013
640.6	1006
640.8	1001
641.0	994.9
641.2	988.3
641.4	980.1
641.6	974.6
641.8	968.5
642.0	963.8
642.2	958.4
642.4	953.0
642.6	946.1
642.8	941.8
643.0	935.5
643.2	928.7
643.4	921.1
643.6	912.7
643.8	905.3
644.0	900.4
644.2	894.2
644.4	890.3
644.6	884.1
644.8	876.1
645.0	869.6
645.2	864.5
645.4	859.5
645.6	856.9
645.8	850.8
646.0	845.1
646.2	838.8
646.4	833.3
646.6	829.3
646.8	824.8
647.0	818.3
647.2	813.2
647.4	807.1
647.6	802.1
647.8	799.0
648.0	794.8
648.2	788.4
648.4	782.3
648.6	776.4
648.8	770.6
649.0	764.6
649.2	759.5
649.4	753.6
649.6	749.3
649.8	744.1
650.0	739.4
650.2	734.5
650.4	730.5
650.6	726.6
650.8	723.1
651.0	716.8
651.2	712.1
651.4	707.2
651.6	701.7
651.8	697.3
652.0	693.7
652.2	688.1
652.4	683.5
652.6	678.6
652.8	673.0
653.0	668.7
653.2	664.8
653.4	662.2
653.6	657.9
653.8	653.9
654.0	649.2
654.2	645.1
654.4	640.3
654.6	637.2
654.8	630.9
655.0	626.4
655.2	622.6
655.4	618.4
655.6	614.0
655.8	609.7
656.0	606.1
656.2	602.0
656.4	597.8
656.6	593.1
656.8	588.1
657.0	583.9
657.2	581.8
657.4	578.5
657.6	575.2
657.8	570.9
658.0	566.0
658.2	561.7
658.4	557.8
658.6	554.2
658.8	550.7
659.0	547.4
659.2	543.2
659.4	539.6
659.6	536.5
659.8	532.8
660.0	529.3
660.2	525.2
660.4	520.4
660.6	515.7
660.8	512.6
661.0	509.3
661.2	507.6
661.4	504.4
661.6	500.9
661.8	496.2
662.0	492.3
662.2	488.7
662.4	486.8
662.6	483.8
662.8	479.2
663.0	476.0
663.2	472.0
663.4	468.7
663.6	466.3
663.8	463.3
664.0	459.6
664.2	457.5
664.4	453.4
664.6	450.9
664.8	449.2
665.0	446.1
665.2	443.3
665.4	439.8
665.6	435.9
665.8	432.7
666.0	430.3
666.2	427.6
666.4	425.1
666.6	422.0
666.8	419.2
667.0	415.5
667.2	412.0
667.4	408.8
667.6	405.8
667.8	402.3
668.0	400.7
668.2	398.5
668.4	396.0
668.6	392.7
668.8	390.4
669.0	387.9
669.2	385.2
669.4	382.5
669.6	379.0
669.8	375.6
670.0	373.2
670.2	370.5
670.4	367.1
670.6	365.3
670.8	363.3
671.0	361.6
671.2	359.6
671.4	356.0
671.6	353.4
671.8	350.8
672.0	349.7
672.2	347.5
672.4	345.6
672.6	343.1
672.8	339.7
673.0	335.5
673.2	332.8
673.4	328.6
673.6	327.1
673.8	325.4
674.0	323.5
674.2	321.0
674.4	319.3
674.6	316.7
674.8	315.5
675.0	313.1
675.2	311.1
675.4	308.7
675.6	306.1
675.8	303.6
676.0	301.4
676.2	298.9
676.4	296.9
676.6	294.8
676.8	292.2
677.0	289.9
677.2	288.3
677.4	286.1
677.6	284.2
677.8	282.8
678.0	281.9
678.2	280.1
678.4	278.2
678.6	275.2
678.8	272.3
679.0	270.5
679.2	268.2
679.4	266.0
679.6	264.0
679.8	262.1
680.0	261.4
680.2	259.9
680.4	257.1
680.6	255.3
680.8	253.3
681.0	251.0
681.2	249.3
681.4	247.8
681.6	246.1
681.8	244.8
682.0	243.7
682.2	241.7
682.4	239.4
682.6	237.5
682.8	235.2
683.0	232.9
683.2	231.8
683.4	230.5
683.6	229.0
683.8	228.5
684.0	227.0
684.2	225.2
684.4	223.1
684.6	220.7
684.8	219.4
685.0	218.9
685.2	217.0
685.4	215.1
685.6	212.7
685.8	210.5
686.0	209.6
686.2	208.5
686.4	206.5
686.6	205.0
686.8	203.8
687.0	202.4
687.2	201.5
687.4	199.9
687.6	198.2
687.8	196.4
688.0	194.9
688.2	193.6
688.4	192.7
688.6	191.5
688.8	191.1
689.0	189.5
689.2	188.4
689.4	186.8
689.6	184.7
689.8	182.9
690.0	181.6
690.2	179.2
690.4	178.5
690.6	177.6
690.8	176.3
691.0	175.7
691.2	175.1
691.4	174.0
691.6	172.9
691.8	171.3
692.0	169.5
692.2	168.2
692.4	166.9
692.6	165.8
692.8	164.7
693.0	163.5
693.2	162.6
693.4	161.5
693.6	160.6
693.8	159.7
694.0	158.6
694.2	157.5
694.4	155.6
694.6	153.9
694.8	153.9
695.0	153.3
695.2	152.0
695.4	151.0
695.6	149.2
695.8	147.8
696.0	147.7
696.2	146.7
696.4	145.6
696.6	145.1
696.8	144.6
697.0	144.3
697.2	144.0
697.4	142.8
697.6	141.5
697.8	140.2
698.0	139.0
698.2	137.6
698.4	137.1
698.6	136.3
698.8	135.8
699.0	134.8
699.2	134.1
699.4	132.6
699.6	131.6
699.8	131.0
700.0	130.6
700.2	129.6
700.4	129.2
700.6	128.3
700.8	127.1
701.0	126.7
701.2	126.0
701.4	124.5
701.6	123.6
701.8	122.8
702.0	121.6
702.2	121.0
702.4	120.2
702.6	119.3
702.8	118.8
703.0	118.6
703.2	118.7
703.4	118.2
703.6	117.5
703.8	116.1
704.0	114.7
704.2	113.4
704.4	113.0
704.6	112.3
704.8	112.2
705.0	111.3
705.2	110.5
705.4	109.8
705.6	109.5
705.8	108.6
706.0	108.0
706.2	106.8
706.4	105.7
706.6	105.2
706.8	105.1
707.0	104.4
707.2	103.5
707.4	102.1
707.6	100.9
707.8	100.9
708.0	100.7
708.2	100.3
708.4	99.60
708.6	98.77
708.8	98.25
709.0	97.77
709.2	97.25
709.4	96.29
709.6	96.07
709.8	95.65
710.0	95.05
710.2	94.34
710.4	93.59
710.6	92.53
710.8	91.65
711.0	90.71
711.2	90.08
711.4	90.05
711.6	89.62
711.8	89.43
712.0	88.69
712.2	88.11
712.4	87.52
712.6	87.00
712.8	86.02
713.0	85.34
713.2	84.84
713.4	84.48
713.6	84.02
713.8	83.67
714.0	83.10
714.2	82.73
714.4	82.43
714.6	81.78
714.8	81.22
715.0	80.24
715.2	79.43
715.4	78.53
715.6	78.04
715.8	77.79
716.0	77.65
716.2	77.09
716.4	76.58
716.6	75.38
716.8	75.03
717.0	74.56
717.2	73.90
717.4	73.17
717.6	72.60
717.8	71.92
718.0	71.87
718.2	71.50
718.4	70.98
718.6	70.34
718.8	69.48
719.0	68.80
719.2	68.37
719.4	68.22
719.6	67.76
719.8	67.58
720.0	67.04
720.2	66.11
720.4	65.71
720.6	65.12
720.8	64.25
721.0	63.90
721.2	63.69
721.4	62.98
721.6	62.85
721.8	62.25
722.0	61.38
722.2	61.15
722.4	60.87
722.6	60.40
722.8	59.87
723.0	59.42
723.2	59.13
723.4	59.05
723.6	58.90
723.8	58.14
724.0	57.28
724.2	56.78
724.4	56.65
724.6	56.57
724.8	56.42
725.0	55.54
725.2	54.80
725.4	54.26
725.6	54.08
725.8	53.93
726.0	53.73
726.2	53.50
726.4	52.78
726.6	51.73
726.8	51.25
727.0	50.63
727.2	50.33
727.4	49.95
727.6	49.56
727.8	49.10
728.0	49.35
728.2	49.56
728.4	49.20
728.6	48.47
728.8	48.06
729.0	47.62
729.2	47.52
729.4	47.10
729.6	46.38
729.8	45.90
730.0	45.56
730.2	45.17
730.4	45.01
730.6	44.67
730.8	44.30
731.0	44.27
731.2	43.92
731.4	43.39
731.6	42.98
731.8	42.62
732.0	42.59
732.2	42.51
732.4	41.97
732.6	41.45
732.8	40.74
733.0	40.10
733.2	40.14
733.4	40.02
733.6	39.92
733.8	39.91
734.0	39.68
734.2	39.28
734.4	38.82
734.6	38.55
734.8	38.27
735.0	38.01
735.2	37.53
735.4	37.22
735.6	36.86
735.8	36.65
736.0	36.44
736.2	36.21
736.4	35.86
736.6	35.57
736.8	35.49
737.0	35.12
737.2	34.91
737.4	34.65
737.6	34.39
737.8	34.06
738.0	33.75
738.2	33.42
738.4	33.31
738.6	32.91
738.8	32.55
739.0	32.32
739.2	31.72
739.4	31.57
739.6	31.60
739.8	31.18
740.0	31.14
740.2	31.12
740.4	30.69
740.6	30.43
740.8	30.30
741.0	29.92
741.2	30.03
741.4	29.80
741.6	29.47
741.8	28.96
742.0	28.86
742.2	28.88
742.4	29.04
742.6	28.90
742.8	28.40
743.0	27.97
743.2	27.79
743.4	27.59
743.6	27.57
743.8	27.59
744.0	27.31
744.2	27.08
744.4	26.80
744.6	26.28
744.8	26.05
745.0	26.03
745.2	26.30
745.4	26.29
745.6	26.07
745.8	25.88
746.0	25.63
746.2	25.17
746.4	24.87
746.6	24.67
746.8	24.20
747.0	24.13
747.2	23.87
747.4	23.48
747.6	23.36
747.8	23.38
748.0	23.32
748.2	23.30
748.4	23.18
748.6	22.85
748.8	22.70
749.0	22.26
749.2	22.10
749.4	21.83
749.6	21.95
749.8	22.02
750.0	22.08
750.2	21.76
750.4	21.40
750.6	21.00
750.8	20.99
751.0	20.88
751.2	20.77
751.4	20.72
751.6	20.61
751.8	20.51
752.0	20.45
752.2	20.33
752.4	20.22
752.6	20.16
752.8	19.84
753.0	19.59
753.2	19.39
753.4	19.48
753.6	19.47
753.8	19.36
754.0	19.02
754.2	19.00
754.4	18.92
754.6	18.67
754.8	18.37
755.0	18.04
755.2	17.68
755.4	17.65
755.6	17.94
755.8	17.83
756.0	17.83
756.2	17.70
756.4	17.55
756.6	17.22
756.8	17.02
757.0	16.74
757.2	16.83
757.4	16.88
757.6	16.95
757.8	16.70
758.0	16.41
758.2	16.14
758.4	16.12
758.6	15.97
758.8	15.74
759.0	15.75
759.2	15.79
759.4	15.59
759.6	15.59
759.8	15.45
760.0	15.24
760.2	15.23
760.4	15.15
760.6	14.86
760.8	14.78
761.0	14.74
761.2	14.51
761.4	14.53
761.6	14.61
761.8	14.52
762.0	14.37
762.2	14.17
762.4	13.77
762.6	13.71
762.8	13.72
763.0	13.87
763.2	14.06
763.4	13.99
763.6	13.66
763.8	13.34
764.0	13.19
764.2	13.29
764.4	13.41
764.6	13.42
764.8	13.13
765.0	13.00
765.2	13.02
765.4	12.85
765.6	12.66
765.8	12.58
766.0	12.30
766.2	12.25
766.4	12.23
766.6	12.09
766.8	11.94
767.0	11.98
767.2	11.83
767.4	11.78
767.6	11.79
767.8	11.91
768.0	11.73
768.2	11.58
768.4	11.36
768.6	11.21
768.8	11.22
769.0	11.40
769.2	11.30
769.4	11.07
769.6	11.01
769.8	10.87
770.0	10.78
770.2	10.70
770.4	10.63
770.6	10.54
770.8	10.57
771.0	10.38
771.2	10.18
771.4	10.12
771.6	10.16
771.8	10.25
772.0	10.39
772.2	10.26
772.4	10.10
772.6	10.03
772.8	9.933
773.0	9.770
773.2	9.735
773.4	9.732
773.6	9.656
773.8	9.719
774.0	9.836
774.2	9.720
774.4	9.671
774.6	9.515
774.8	9.351
775.0	9.409
775.2	9.440
775.4	9.493
775.6	9.362
775.8	9.137
776.0	8.996
776.2	8.992
776.4	8.998
776.6	9.069
776.8	8.985
777.0	8.850
777.2	8.694
777.4	8.566
777.6	8.507
777.8	8.513
778.0	8.535
778.2	8.561
778.4	8.409
778.6	8.332
778.8	8.305
779.0	8.358
779.2	8.439
779.4	8.410
779.6	8.197
779.8	7.959
780.0	7.866
780.2	7.884
780.4	7.803
780.6	7.885
780.8	8.066
781.0	8.098
781.2	8.144
781.4	8.245
781.6	8.046
781.8	7.892
782.0	7.764
782.2	7.784
782.4	7.780
782.6	8.142
782.8	8.235
783.0	8.097
783.2	7.770
783.4	7.800
783.6	7.765
783.8	7.904
784.0	8.032
784.2	8.162
784.4	8.087
784.6	8.124
784.8	8.186
785.0	8.176
785.2	8.169
785.4	8.297
785.6	8.374
785.8	8.354
786.0	8.516
786.2	8.611
786.4	8.561
786.6	8.550
786.8	8.517
787.0	8.453
787.2	8.525
787.4	8.666
787.6	8.703
787.8	8.841
788.0	8.965
788.2	9.017
788.4	9.086
788.6	9.114
788.8	9.050
789.0	9.192
789.2	9.391
789.4	9.490
789.6	9.580
789.8	9.661
790.0	9.844
790.2	9.864
790.4	10.02
790.6	10.01
790.8	9.967
791.0	9.974
791.2	10.27
791.4	10.27
791.6	10.51
791.8	10.58
792.0	10.46
792.2	10.49
792.4	10.86
792.6	10.97
792.8	11.29
793.0	11.37
793.2	11.31
793.4	11.39
793.6	11.40
793.8	11.36
794.0	11.51
794.2	11.64
794.4	11.80
794.6	12.08
794.8	12.01
795.0	11.99
795.2	11.94
795.4	11.89
795.6	11.88
795.8	12.06
796.0	12.11
796.2	12.31
796.4	12.42
796.6	12.64
796.8	12.75
797.0	12.84
797.2	12.87
797.4	12.80
797.6	12.74
797.8	12.82
798.0	12.76
798.2	12.79
798.4	12.79
798.6	12.79
798.8	12.81
799.0	12.88
799.2	12.98
799.4	13.02
799.6	12.92
799.8	12.82
800.0	12.74
800.2	12.73
800.4	12.60
800.6	12.41
800.8	12.51
801.0	12.58
801.2	12.68
801.4	12.83
801.6	12.67
801.8	12.51
802.0	12.66
802.2	12.62
802.4	12.55
802.6	12.46
802.8	12.31
803.0	12.36
803.2	12.37
803.4	12.33
803.6	12.32
803.8	12.15
804.0	11.99
804.2	12.10
804.4	12.10
804.6	12.11
804.8	12.15
805.0	11.99
805.2	11.83
805.4	11.71
805.6	11.47
805.8	11.59
806.0	11.60
806.2	11.24
806.4	11.21
806.6	10.97
806.8	10.82
807.0	11.04
807.2	11.02
807.4	10.85
807.6	10.83
807.8	10.68
808.0	10.65
808.2	10.53
808.4	10.23
808.6	10.07
808.8	9.830
809.0	9.838
809.2	9.826
809.4	9.865
809.6	9.774
809.8	9.612
810.0	9.355
810.2	9.359
810.4	9.275
810.6	9.301
810.8	9.201
811.0	8.937
811.2	8.661
811.4	8.608
811.6	8.466
811.8	8.358
812.0	8.296
812.2	8.275
812.4	8.288
812.6	8.276
812.8	7.999
813.0	7.795
813.2	7.575
813.4	7.429
813.6	7.491
813.8	7.465
814.0	7.278
814.2	7.165
814.4	7.004
814.6	6.758
814.8	6.760
815.0	6.709
815.2	6.651
815.4	6.658
815.6	6.622
815.8	6.402
816.0	6.371
816.2	6.137
816.4	5.926
816.6	5.879
816.8	5.754
817.0	5.682
817.2	5.630
817.4	5.366
817.6	5.174
817.8	5.133
818.0	5.068
818.2	5.140
818.4	5.173
818.6	5.074
818.8	4.951
819.0	4.879
819.2	4.841
819.4	4.909
819.6	5.010
819.8	4.899
820.0	4.736
820.2	4.618
820.4	4.472
820.6	4.496
820.8	4.531
821.0	4.475
821.2	4.321
821.4	4.215
821.6	4.155
821.8	4.220
822.0	4.140
822.2	4.221
822.4	4.115
822.6	4.131
822.8	4.080
823.0	4.034
823.2	3.747
823.4	3.674
823.6	3.627
823.8	3.662
824.0	3.727
824.2	3.859
824.4	3.719
824.6	3.618
824.8	3.607
825.0	3.528
825.2	3.521
825.4	3.538
825.6	3.507
825.8	3.480
826.0	3.527
826.2	3.520
826.4	3.426
826.6	3.396
826.8	3.424
827.0	3.401
827.2	3.349
827.4	3.400
827.6	3.239
827.8	3.205
828.0	3.302
828.2	3.309
828.4	3.303
828.6	3.354
828.8	3.193
829.0	3.127
829.2	3.117
829.4	3.018
829.6	3.021
829.8	3.038
830.0	2.983
830.2	2.944
830.4	2.939
830.6	2.824
830.8	2.782
831.0	2.792
831.2	2.770
831.4	2.792
831.6	2.841
831.8	2.827
832.0	2.824
832.2	2.910
832.4	2.964
832.6	3.016
832.8	2.903
833.0	2.822
833.2	2.720
833.4	2.698
833.6	2.701
833.8	2.697
834.0	2.623
834.2	2.585
834.4	2.563
834.6	2.551
834.8	2.581
835.0	2.529
835.2	2.450
835.4	2.371
835.6	2.363
835.8	2.431
836.0	2.504
836.2	2.554
836.4	2.525
836.6	2.501
836.8	2.436
837.0	2.420
837.2	2.410
837.4	2.447
837.6	2.380
837.8	2.404
838.0	2.373
838.2	2.393
838.4	2.411
838.6	2.403
838.8	2.318
839.0	2.274
839.2	2.236
839.4	2.295
839.6	2.308
839.8	2.325
840.0	2.301
840.2	2.235
840.4	2.199
840.6	2.241
840.8	2.257
841.0	2.239
841.2	2.188
841.4	2.180
841.6	2.109
841.8	2.036
842.0	2.011
842.2	2.037
842.4	2.108
842.6	2.215
842.8	2.130
843.0	2.099
843.2	2.081
843.4	2.097
843.6	2.157
843.8	2.196
844.0	2.134
844.2	2.196
844.4	2.181
844.6	2.081
844.8	1.995
845.0	1.947
845.2	1.932
845.4	2.009
845.6	1.969
845.8	1.969
846.0	1.952
846.2	1.936
846.4	1.974
846.6	1.997
846.8	1.892
847.0	1.863
847.2	1.811
847.4	1.837
847.6	1.877
847.8	1.897
848.0	1.860
848.2	1.802
848.4	1.778
848.6	1.823
848.8	1.798
849.0	1.823
849.2	1.787
849.4	1.804
849.6	1.866
849.8	1.901
850.0	1.863

