Sample:	'20211010A(EM)
File name:	G-Ni-CDS-CHO-yuan-S2- new.FDS
Run date:	'10:06:11, 03/23/2023
Operator:	Administrator
Comment:	'

Instrument
Model:	F-4700 FL Spectrophotometer
Serial number:	2019-001
ROM Version:	5J24010 00

Instrument parameters
Measurement type:	Wavelength scan
Scan mode:	Emission
Data mode:	Fluorescence
EX WL:	410.0 nm
EM  Start WL:	420.0 nm
EM  End WL:	850.0 nm
Scan speed:	1200 nm/min
Delay:	0.0 s
EX Slit:	10.0 nm
EM Slit:	10.0 nm
PMT Voltage:	410 V
Response:	0.002 s
Corrected spectra:	Off
Shutter control:	On

Processing performed
Savitsky-Golay smoothed
Smoothing order:	3
Number of points:	7
Number of times:	1

Peak integration
Integration method:	Rectangular
Sensitivity:	1
Threshold:	1.000

Peaks
No.	Start(nm)	Apex(nm)	End(nm)	Height(Data)	Valley(nm)	Valley(Data)
1	429.8	527.0	528.0	4179	528.0	4176
2	528.0	528.6	529.6	4180	529.6	4170
3	529.6	531.4	792.8	4182	792.8	2.505
4	792.8	824.0	850.0	140.5	850.0	2.179

Data points
nm	Data
420.0	1265
420.2	1201
420.4	1126
420.6	1048
420.8	973.8
421.0	907.5
421.2	845.5
421.4	784.4
421.6	728.2
421.8	675.0
422.0	626.8
422.2	580.1
422.4	535.1
422.6	492.4
422.8	452.9
423.0	416.1
423.2	383.0
423.4	351.4
423.6	322.4
423.8	294.4
424.0	269.1
424.2	245.0
424.4	223.0
424.6	202.2
424.8	183.7
425.0	166.2
425.2	151.0
425.4	136.9
425.6	124.2
425.8	112.3
426.0	101.3
426.2	91.39
426.4	82.73
426.6	75.77
426.8	69.74
427.0	64.30
427.2	59.47
427.4	55.02
427.6	50.94
427.8	47.77
428.0	44.93
428.2	42.65
428.4	40.89
428.6	39.13
428.8	37.83
429.0	36.96
429.2	36.44
429.4	36.20
429.6	36.09
429.8	35.86
430.0	35.94
430.2	36.00
430.4	36.33
430.6	36.81
430.8	37.46
431.0	37.81
431.2	38.24
431.4	38.70
431.6	38.99
431.8	39.27
432.0	39.76
432.2	40.02
432.4	40.40
432.6	40.93
432.8	41.09
433.0	41.64
433.2	42.23
433.4	42.76
433.6	43.14
433.8	43.39
434.0	43.50
434.2	44.04
434.4	44.58
434.6	45.30
434.8	45.98
435.0	46.56
435.2	46.94
435.4	47.36
435.6	47.59
435.8	48.22
436.0	48.81
436.2	49.35
436.4	49.84
436.6	50.42
436.8	50.89
437.0	51.55
437.2	51.91
437.4	52.62
437.6	53.26
437.8	53.96
438.0	54.63
438.2	55.36
438.4	55.77
438.6	56.52
438.8	56.86
439.0	57.41
439.2	58.20
439.4	58.91
439.6	59.53
439.8	60.20
440.0	60.85
440.2	61.43
440.4	62.59
440.6	63.22
440.8	63.62
441.0	64.31
441.2	65.09
441.4	65.52
441.6	66.48
441.8	67.35
442.0	67.98
442.2	69.22
442.4	70.09
442.6	70.80
442.8	71.60
443.0	72.47
443.2	73.15
443.4	74.31
443.6	75.11
443.8	75.96
444.0	76.86
444.2	77.70
444.4	78.47
444.6	79.28
444.8	80.52
445.0	81.72
445.2	82.98
445.4	84.24
445.6	85.28
445.8	85.91
446.0	87.22
446.2	88.25
446.4	89.61
446.6	90.97
446.8	92.06
447.0	93.18
447.2	94.16
447.4	95.27
447.6	96.40
447.8	97.44
448.0	98.45
448.2	100.1
448.4	101.7
448.6	103.2
448.8	104.7
449.0	105.8
449.2	106.9
449.4	108.5
449.6	110.2
449.8	111.5
450.0	113.4
450.2	114.8
450.4	116.5
450.6	118.0
450.8	119.2
451.0	120.9
451.2	122.5
451.4	124.5
451.6	126.8
451.8	128.4
452.0	130.1
452.2	131.9
452.4	133.4
452.6	135.1
452.8	137.1
453.0	138.8
453.2	140.9
453.4	143.1
453.6	145.6
453.8	147.7
454.0	150.2
454.2	152.2
454.4	153.9
454.6	155.9
454.8	157.9
455.0	160.3
455.2	163.1
455.4	166.2
455.6	169.5
455.8	173.1
456.0	176.2
456.2	179.1
456.4	181.5
456.6	183.9
456.8	187.0
457.0	190.4
457.2	193.7
457.4	196.8
457.6	199.8
457.8	202.8
458.0	206.4
458.2	209.9
458.4	213.1
458.6	216.6
458.8	219.9
459.0	223.6
459.2	228.2
459.4	232.9
459.6	237.4
459.8	242.8
460.0	247.2
460.2	251.1
460.4	255.7
460.6	259.8
460.8	264.0
461.0	269.6
461.2	274.7
461.4	280.8
461.6	286.6
461.8	291.2
462.0	295.7
462.2	301.0
462.4	305.8
462.6	312.1
462.8	318.7
463.0	324.8
463.2	331.0
463.4	336.9
463.6	342.5
463.8	348.8
464.0	355.0
464.2	362.2
464.4	369.8
464.6	377.1
464.8	384.5
465.0	392.5
465.2	398.6
465.4	406.0
465.6	413.3
465.8	421.3
466.0	429.9
466.2	439.2
466.4	447.1
466.6	454.1
466.8	461.5
467.0	468.9
467.2	477.5
467.4	487.6
467.6	497.2
467.8	506.6
468.0	516.0
468.2	524.0
468.4	531.9
468.6	541.1
468.8	549.8
469.0	559.7
469.2	569.4
469.4	580.2
469.6	591.3
469.8	603.2
470.0	614.1
470.2	625.2
470.4	635.4
470.6	646.4
470.8	657.8
471.0	670.0
471.2	682.2
471.4	693.7
471.6	704.5
471.8	714.8
472.0	724.7
472.2	735.9
472.4	748.2
472.6	760.5
472.8	773.0
473.0	784.5
473.2	795.4
473.4	807.4
473.6	819.2
473.8	832.6
474.0	846.7
474.2	861.0
474.4	876.1
474.6	889.9
474.8	902.3
475.0	916.1
475.2	928.1
475.4	942.7
475.6	958.2
475.8	972.3
476.0	986.8
476.2	1002
476.4	1014
476.6	1028
476.8	1041
477.0	1054
477.2	1067
477.4	1082
477.6	1097
477.8	1112
478.0	1126
478.2	1141
478.4	1154
478.6	1169
478.8	1184
479.0	1201
479.2	1216
479.4	1233
479.6	1247
479.8	1263
480.0	1279
480.2	1296
480.4	1312
480.6	1328
480.8	1343
481.0	1358
481.2	1373
481.4	1388
481.6	1403
481.8	1419
482.0	1435
482.2	1451
482.4	1466
482.6	1482
482.8	1498
483.0	1514
483.2	1531
483.4	1548
483.6	1566
483.8	1583
484.0	1599
484.2	1616
484.4	1630
484.6	1648
484.8	1666
485.0	1683
485.2	1699
485.4	1717
485.6	1732
485.8	1748
486.0	1764
486.2	1782
486.4	1798
486.6	1816
486.8	1831
487.0	1848
487.2	1864
487.4	1881
487.6	1898
487.8	1917
488.0	1934
488.2	1953
488.4	1968
488.6	1985
488.8	2002
489.0	2021
489.2	2040
489.4	2059
489.6	2072
489.8	2087
490.0	2102
490.2	2118
490.4	2136
490.6	2156
490.8	2174
491.0	2193
491.2	2211
491.4	2227
491.6	2240
491.8	2256
492.0	2272
492.2	2291
492.4	2307
492.6	2322
492.8	2337
493.0	2354
493.2	2370
493.4	2391
493.6	2406
493.8	2425
494.0	2442
494.2	2460
494.4	2477
494.6	2494
494.8	2511
495.0	2528
495.2	2544
495.4	2561
495.6	2578
495.8	2594
496.0	2611
496.2	2627
496.4	2644
496.6	2659
496.8	2676
497.0	2693
497.2	2706
497.4	2723
497.6	2742
497.8	2758
498.0	2777
498.2	2796
498.4	2810
498.6	2825
498.8	2841
499.0	2855
499.2	2869
499.4	2885
499.6	2899
499.8	2916
500.0	2934
500.2	2949
500.4	2964
500.6	2977
500.8	2992
501.0	3009
501.2	3023
501.4	3038
501.6	3052
501.8	3066
502.0	3083
502.2	3102
502.4	3116
502.6	3130
502.8	3144
503.0	3161
503.2	3177
503.4	3194
503.6	3206
503.8	3221
504.0	3235
504.2	3249
504.4	3263
504.6	3275
504.8	3287
505.0	3302
505.2	3314
505.4	3326
505.6	3338
505.8	3352
506.0	3366
506.2	3384
506.4	3403
506.6	3418
506.8	3431
507.0	3444
507.2	3453
507.4	3467
507.6	3482
507.8	3496
508.0	3507
508.2	3518
508.4	3528
508.6	3539
508.8	3549
509.0	3561
509.2	3573
509.4	3584
509.6	3596
509.8	3610
510.0	3623
510.2	3636
510.4	3649
510.6	3657
510.8	3666
511.0	3678
511.2	3691
511.4	3702
511.6	3714
511.8	3724
512.0	3735
512.2	3747
512.4	3761
512.6	3771
512.8	3781
513.0	3791
513.2	3801
513.4	3813
513.6	3822
513.8	3830
514.0	3836
514.2	3840
514.4	3847
514.6	3854
514.8	3859
515.0	3870
515.2	3879
515.4	3891
515.6	3901
515.8	3910
516.0	3918
516.2	3925
516.4	3931
516.6	3939
516.8	3948
517.0	3958
517.2	3968
517.4	3978
517.6	3985
517.8	3991
518.0	4001
518.2	4007
518.4	4013
518.6	4017
518.8	4022
519.0	4025
519.2	4030
519.4	4036
519.6	4043
519.8	4050
520.0	4057
520.2	4063
520.4	4066
520.6	4072
520.8	4078
521.0	4083
521.2	4087
521.4	4092
521.6	4093
521.8	4099
522.0	4102
522.2	4107
522.4	4113
522.6	4115
522.8	4118
523.0	4123
523.2	4124
523.4	4129
523.6	4132
523.8	4131
524.0	4132
524.2	4134
524.4	4140
524.6	4147
524.8	4154
525.0	4158
525.2	4158
525.4	4159
525.6	4160
525.8	4164
526.0	4168
526.2	4170
526.4	4174
526.6	4176
526.8	4178
527.0	4179
527.2	4177
527.4	4176
527.6	4177
527.8	4176
528.0	4176
528.2	4178
528.4	4178
528.6	4180
528.8	4179
529.0	4180
529.2	4176
529.4	4174
529.6	4170
529.8	4170
530.0	4173
530.2	4178
530.4	4178
530.6	4178
530.8	4177
531.0	4178
531.2	4180
531.4	4182
531.6	4178
531.8	4175
532.0	4172
532.2	4169
532.4	4165
532.6	4162
532.8	4159
533.0	4159
533.2	4159
533.4	4160
533.6	4155
533.8	4151
534.0	4148
534.2	4145
534.4	4144
534.6	4144
534.8	4143
535.0	4138
535.2	4133
535.4	4131
535.6	4127
535.8	4125
536.0	4128
536.2	4126
536.4	4126
536.6	4122
536.8	4113
537.0	4106
537.2	4100
537.4	4097
537.6	4096
537.8	4092
538.0	4089
538.2	4082
538.4	4076
538.6	4072
538.8	4068
539.0	4062
539.2	4057
539.4	4050
539.6	4047
539.8	4046
540.0	4043
540.2	4037
540.4	4035
540.6	4033
540.8	4030
541.0	4027
541.2	4015
541.4	4003
541.6	3995
541.8	3989
542.0	3983
542.2	3977
542.4	3971
542.6	3964
542.8	3960
543.0	3955
543.2	3945
543.4	3940
543.6	3936
543.8	3930
544.0	3926
544.2	3916
544.4	3908
544.6	3903
544.8	3903
545.0	3899
545.2	3893
545.4	3885
545.6	3879
545.8	3871
546.0	3865
546.2	3853
546.4	3844
546.6	3833
546.8	3827
547.0	3818
547.2	3808
547.4	3799
547.6	3794
547.8	3789
548.0	3782
548.2	3773
548.4	3765
548.6	3757
548.8	3751
549.0	3744
549.2	3734
549.4	3725
549.6	3717
549.8	3710
550.0	3702
550.2	3693
550.4	3685
550.6	3673
550.8	3664
551.0	3656
551.2	3646
551.4	3635
551.6	3625
551.8	3616
552.0	3613
552.2	3608
552.4	3603
552.6	3593
552.8	3583
553.0	3575
553.2	3568
553.4	3559
553.6	3550
553.8	3538
554.0	3525
554.2	3514
554.4	3505
554.6	3496
554.8	3486
555.0	3478
555.2	3465
555.4	3457
555.6	3449
555.8	3438
556.0	3429
556.2	3421
556.4	3411
556.6	3403
556.8	3395
557.0	3387
557.2	3378
557.4	3370
557.6	3358
557.8	3348
558.0	3340
558.2	3332
558.4	3322
558.6	3311
558.8	3300
559.0	3289
559.2	3278
559.4	3267
559.6	3254
559.8	3241
560.0	3233
560.2	3220
560.4	3210
560.6	3199
560.8	3191
561.0	3180
561.2	3175
561.4	3164
561.6	3159
561.8	3149
562.0	3142
562.2	3129
562.4	3120
562.6	3105
562.8	3094
563.0	3084
563.2	3074
563.4	3062
563.6	3051
563.8	3039
564.0	3028
564.2	3018
564.4	3009
564.6	2998
564.8	2990
565.0	2981
565.2	2971
565.4	2957
565.6	2944
565.8	2932
566.0	2923
566.2	2912
566.4	2904
566.6	2892
566.8	2879
567.0	2869
567.2	2857
567.4	2848
567.6	2839
567.8	2829
568.0	2819
568.2	2810
568.4	2800
568.6	2791
568.8	2779
569.0	2768
569.2	2757
569.4	2749
569.6	2741
569.8	2734
570.0	2723
570.2	2711
570.4	2698
570.6	2685
570.8	2675
571.0	2664
571.2	2654
571.4	2645
571.6	2635
571.8	2622
572.0	2612
572.2	2599
572.4	2589
572.6	2580
572.8	2570
573.0	2560
573.2	2548
573.4	2537
573.6	2527
573.8	2519
574.0	2510
574.2	2502
574.4	2493
574.6	2483
574.8	2473
575.0	2461
575.2	2450
575.4	2441
575.6	2432
575.8	2420
576.0	2410
576.2	2397
576.4	2386
576.6	2376
576.8	2365
577.0	2356
577.2	2347
577.4	2338
577.6	2328
577.8	2317
578.0	2306
578.2	2295
578.4	2287
578.6	2281
578.8	2272
579.0	2263
579.2	2253
579.4	2241
579.6	2232
579.8	2222
580.0	2216
580.2	2205
580.4	2196
580.6	2186
580.8	2176
581.0	2165
581.2	2155
581.4	2144
581.6	2135
581.8	2127
582.0	2117
582.2	2107
582.4	2096
582.6	2087
582.8	2076
583.0	2066
583.2	2057
583.4	2049
583.6	2041
583.8	2034
584.0	2025
584.2	2016
584.4	2008
584.6	2000
584.8	1991
585.0	1983
585.2	1973
585.4	1962
585.6	1953
585.8	1945
586.0	1936
586.2	1925
586.4	1916
586.6	1906
586.8	1897
587.0	1890
587.2	1880
587.4	1869
587.6	1859
587.8	1849
588.0	1841
588.2	1832
588.4	1824
588.6	1816
588.8	1809
589.0	1800
589.2	1794
589.4	1786
589.6	1778
589.8	1768
590.0	1762
590.2	1753
590.4	1745
590.6	1736
590.8	1728
591.0	1719
591.2	1712
591.4	1705
591.6	1699
591.8	1687
592.0	1678
592.2	1670
592.4	1660
592.6	1652
592.8	1646
593.0	1637
593.2	1630
593.4	1622
593.6	1614
593.8	1608
594.0	1601
594.2	1593
594.4	1586
594.6	1578
594.8	1570
595.0	1562
595.2	1552
595.4	1543
595.6	1535
595.8	1526
596.0	1518
596.2	1510
596.4	1503
596.6	1497
596.8	1490
597.0	1483
597.2	1476
597.4	1470
597.6	1464
597.8	1457
598.0	1449
598.2	1438
598.4	1430
598.6	1423
598.8	1417
599.0	1411
599.2	1406
599.4	1398
599.6	1392
599.8	1384
600.0	1378
600.2	1370
600.4	1362
600.6	1355
600.8	1348
601.0	1342
601.2	1336
601.4	1329
601.6	1321
601.8	1313
602.0	1306
602.2	1298
602.4	1291
602.6	1286
602.8	1281
603.0	1274
603.2	1267
603.4	1259
603.6	1252
603.8	1244
604.0	1237
604.2	1229
604.4	1224
604.6	1218
604.8	1214
605.0	1208
605.2	1202
605.4	1195
605.6	1187
605.8	1179
606.0	1174
606.2	1169
606.4	1165
606.6	1157
606.8	1148
607.0	1141
607.2	1133
607.4	1128
607.6	1122
607.8	1115
608.0	1109
608.2	1103
608.4	1098
608.6	1092
608.8	1088
609.0	1082
609.2	1075
609.4	1068
609.6	1062
609.8	1056
610.0	1051
610.2	1044
610.4	1037
610.6	1030
610.8	1027
611.0	1023
611.2	1017
611.4	1010
611.6	1004
611.8	996.9
612.0	991.2
612.2	985.4
612.4	979.4
612.6	973.5
612.8	968.4
613.0	963.4
613.2	957.2
613.4	951.2
613.6	944.9
613.8	939.9
614.0	936.0
614.2	931.6
614.4	926.4
614.6	919.7
614.8	913.2
615.0	907.3
615.2	901.9
615.4	895.5
615.6	890.2
615.8	885.8
616.0	881.2
616.2	876.5
616.4	871.5
616.6	865.3
616.8	859.0
617.0	853.7
617.2	847.7
617.4	842.2
617.6	836.0
617.8	831.9
618.0	828.9
618.2	824.3
618.4	820.0
618.6	813.8
618.8	808.1
619.0	804.8
619.2	800.5
619.4	794.9
619.6	790.9
619.8	784.4
620.0	780.0
620.2	776.7
620.4	772.7
620.6	767.6
620.8	762.7
621.0	756.7
621.2	750.9
621.4	746.1
621.6	742.0
621.8	737.6
622.0	733.3
622.2	728.5
622.4	724.0
622.6	719.4
622.8	714.4
623.0	709.6
623.2	705.0
623.4	700.0
623.6	695.6
623.8	692.2
624.0	688.9
624.2	685.4
624.4	681.4
624.6	676.4
624.8	671.4
625.0	667.3
625.2	663.4
625.4	659.9
625.6	655.4
625.8	650.2
626.0	646.1
626.2	641.7
626.4	637.7
626.6	633.9
626.8	630.4
627.0	625.7
627.2	621.8
627.4	616.7
627.6	612.1
627.8	607.8
628.0	604.1
628.2	598.9
628.4	596.1
628.6	591.8
628.8	588.0
629.0	585.5
629.2	581.2
629.4	576.9
629.6	573.6
629.8	569.4
630.0	565.1
630.2	561.4
630.4	557.8
630.6	554.5
630.8	551.6
631.0	548.6
631.2	543.9
631.4	540.3
631.6	537.7
631.8	534.3
632.0	532.1
632.2	529.1
632.4	525.1
632.6	520.9
632.8	516.6
633.0	512.0
633.2	509.2
633.4	506.5
633.6	504.1
633.8	500.0
634.0	496.0
634.2	492.0
634.4	489.2
634.6	486.8
634.8	484.5
635.0	481.7
635.2	479.2
635.4	475.6
635.6	472.6
635.8	469.2
636.0	465.6
636.2	461.7
636.4	459.5
636.6	455.3
636.8	452.0
637.0	448.0
637.2	444.8
637.4	441.9
637.6	440.6
637.8	437.9
638.0	435.4
638.2	432.2
638.4	429.3
638.6	426.0
638.8	423.7
639.0	420.4
639.2	416.9
639.4	414.5
639.6	411.8
639.8	408.1
640.0	405.2
640.2	402.4
640.4	399.1
640.6	396.5
640.8	393.8
641.0	390.6
641.2	388.3
641.4	387.4
641.6	385.5
641.8	383.1
642.0	380.7
642.2	377.8
642.4	374.6
642.6	371.9
642.8	369.6
643.0	367.4
643.2	365.3
643.4	362.9
643.6	360.2
643.8	357.3
644.0	354.7
644.2	352.1
644.4	349.4
644.6	346.5
644.8	344.5
645.0	342.0
645.2	339.7
645.4	337.1
645.6	334.2
645.8	331.8
646.0	329.4
646.2	327.4
646.4	325.6
646.6	323.6
646.8	321.4
647.0	319.7
647.2	316.8
647.4	314.3
647.6	312.1
647.8	310.0
648.0	308.0
648.2	305.7
648.4	302.4
648.6	300.3
648.8	298.2
649.0	296.5
649.2	294.4
649.4	292.7
649.6	290.6
649.8	289.2
650.0	286.9
650.2	284.9
650.4	282.0
650.6	280.3
650.8	278.3
651.0	276.8
651.2	274.9
651.4	273.6
651.6	271.8
651.8	270.1
652.0	268.0
652.2	265.3
652.4	263.9
652.6	262.3
652.8	260.7
653.0	258.4
653.2	255.9
653.4	253.2
653.6	252.0
653.8	250.2
654.0	249.3
654.2	247.2
654.4	245.8
654.6	243.8
654.8	242.2
655.0	240.0
655.2	238.7
655.4	236.8
655.6	235.8
655.8	234.0
656.0	232.2
656.2	230.1
656.4	228.3
656.6	226.3
656.8	225.1
657.0	223.7
657.2	222.2
657.4	220.6
657.6	219.0
657.8	217.5
658.0	216.7
658.2	215.0
658.4	213.7
658.6	211.3
658.8	209.6
659.0	208.4
659.2	207.4
659.4	205.8
659.6	204.2
659.8	201.9
660.0	200.3
660.2	198.5
660.4	197.8
660.6	196.8
660.8	195.4
661.0	194.1
661.2	192.7
661.4	190.4
661.6	189.0
661.8	187.3
662.0	186.0
662.2	185.2
662.4	184.0
662.6	182.6
662.8	181.6
663.0	180.1
663.2	178.5
663.4	177.2
663.6	175.2
663.8	173.7
664.0	172.6
664.2	171.6
664.4	170.9
664.6	170.2
664.8	168.5
665.0	166.9
665.2	165.2
665.4	163.9
665.6	163.3
665.8	162.5
666.0	161.2
666.2	159.7
666.4	158.7
666.6	157.4
666.8	156.3
667.0	155.7
667.2	154.5
667.4	152.9
667.6	151.8
667.8	150.3
668.0	149.1
668.2	148.7
668.4	147.7
668.6	146.3
668.8	144.8
669.0	143.5
669.2	142.2
669.4	141.7
669.6	140.9
669.8	140.0
670.0	139.1
670.2	138.2
670.4	136.8
670.6	135.6
670.8	134.2
671.0	133.1
671.2	132.4
671.4	132.0
671.6	130.7
671.8	130.1
672.0	129.5
672.2	129.0
672.4	128.3
672.6	127.1
672.8	125.1
673.0	124.0
673.2	123.1
673.4	122.7
673.6	122.0
673.8	121.2
674.0	119.9
674.2	118.9
674.4	118.0
674.6	117.1
674.8	116.3
675.0	115.2
675.2	114.4
675.4	113.2
675.6	112.2
675.8	111.2
676.0	110.5
676.2	110.0
676.4	109.5
676.6	108.5
676.8	107.4
677.0	106.4
677.2	105.8
677.4	105.2
677.6	104.2
677.8	103.3
678.0	102.5
678.2	102.0
678.4	101.5
678.6	100.9
678.8	99.78
679.0	98.66
679.2	97.85
679.4	96.99
679.6	96.21
679.8	95.66
680.0	95.05
680.2	94.56
680.4	93.68
680.6	92.76
680.8	92.02
681.0	91.36
681.2	90.86
681.4	90.67
681.6	89.91
681.8	89.37
682.0	88.64
682.2	87.76
682.4	86.94
682.6	86.30
682.8	85.59
683.0	85.00
683.2	84.14
683.4	83.49
683.6	82.75
683.8	82.11
684.0	81.55
684.2	80.86
684.4	80.01
684.6	79.61
684.8	79.05
685.0	78.65
685.2	77.94
685.4	77.38
685.6	76.67
685.8	76.25
686.0	75.81
686.2	75.37
686.4	74.67
686.6	74.16
686.8	73.57
687.0	73.10
687.2	72.29
687.4	71.63
687.6	71.05
687.8	70.60
688.0	70.03
688.2	69.70
688.4	69.05
688.6	68.55
688.8	67.89
689.0	67.58
689.2	66.97
689.4	66.38
689.6	65.82
689.8	65.62
690.0	65.08
690.2	64.83
690.4	64.44
690.6	63.60
690.8	62.93
691.0	62.58
691.2	61.84
691.4	61.25
691.6	60.97
691.8	60.63
692.0	60.33
692.2	60.14
692.4	59.49
692.6	58.82
692.8	58.40
693.0	58.09
693.2	57.81
693.4	57.68
693.6	57.27
693.8	56.71
694.0	56.38
694.2	55.94
694.4	55.51
694.6	55.10
694.8	54.93
695.0	54.43
695.2	53.93
695.4	53.40
695.6	52.87
695.8	52.52
696.0	52.44
696.2	52.14
696.4	51.68
696.6	51.20
696.8	50.89
697.0	50.67
697.2	50.24
697.4	49.79
697.6	49.45
697.8	48.87
698.0	48.70
698.2	48.40
698.4	47.98
698.6	47.61
698.8	47.46
699.0	46.99
699.2	46.70
699.4	46.22
699.6	45.97
699.8	45.82
700.0	45.46
700.2	45.31
700.4	44.97
700.6	44.70
700.8	44.51
701.0	44.42
701.2	43.99
701.4	43.81
701.6	43.29
701.8	42.73
702.0	42.14
702.2	42.00
702.4	41.92
702.6	41.69
702.8	41.57
703.0	41.07
703.2	40.66
703.4	40.49
703.6	40.37
703.8	40.08
704.0	40.10
704.2	39.71
704.4	39.40
704.6	38.90
704.8	38.80
705.0	38.58
705.2	38.47
705.4	38.34
705.6	37.90
705.8	37.32
706.0	37.14
706.2	36.87
706.4	36.76
706.6	36.77
706.8	36.46
707.0	35.96
707.2	35.41
707.4	35.04
707.6	34.87
707.8	34.69
708.0	34.56
708.2	34.35
708.4	34.17
708.6	34.19
708.8	34.14
709.0	33.91
709.2	33.53
709.4	33.12
709.6	32.88
709.8	32.65
710.0	32.56
710.2	32.52
710.4	32.56
710.6	32.24
710.8	31.89
711.0	31.31
711.2	30.92
711.4	30.65
711.6	30.69
711.8	30.48
712.0	30.41
712.2	30.22
712.4	30.04
712.6	29.60
712.8	29.34
713.0	29.10
713.2	29.14
713.4	28.90
713.6	28.88
713.8	28.58
714.0	28.29
714.2	27.95
714.4	27.89
714.6	27.57
714.8	27.50
715.0	27.42
715.2	27.26
715.4	26.89
715.6	26.69
715.8	26.48
716.0	26.27
716.2	26.26
716.4	26.27
716.6	25.87
716.8	25.62
717.0	25.23
717.2	25.00
717.4	24.96
717.6	25.00
717.8	24.75
718.0	24.59
718.2	24.18
718.4	24.00
718.6	23.91
718.8	23.81
719.0	23.61
719.2	23.35
719.4	23.26
719.6	23.05
719.8	22.85
720.0	22.79
720.2	22.58
720.4	22.48
720.6	22.33
720.8	21.94
721.0	21.63
721.2	21.46
721.4	21.15
721.6	21.10
721.8	20.90
722.0	20.78
722.2	20.69
722.4	20.60
722.6	20.43
722.8	20.29
723.0	20.16
723.2	20.02
723.4	19.86
723.6	19.67
723.8	19.46
724.0	19.13
724.2	18.87
724.4	18.73
724.6	18.66
724.8	18.61
725.0	18.61
725.2	18.48
725.4	18.46
725.6	18.24
725.8	18.04
726.0	17.82
726.2	17.67
726.4	17.64
726.6	17.58
726.8	17.32
727.0	17.04
727.2	16.87
727.4	16.82
727.6	16.93
727.8	16.79
728.0	16.62
728.2	16.25
728.4	16.10
728.6	16.07
728.8	16.01
729.0	16.01
729.2	15.97
729.4	15.79
729.6	15.69
729.8	15.65
730.0	15.52
730.2	15.40
730.4	15.24
730.6	15.06
730.8	14.91
731.0	14.84
731.2	14.69
731.4	14.63
731.6	14.57
731.8	14.41
732.0	14.25
732.2	14.06
732.4	13.90
732.6	13.93
732.8	13.92
733.0	13.80
733.2	13.63
733.4	13.48
733.6	13.41
733.8	13.28
734.0	13.13
734.2	12.85
734.4	12.63
734.6	12.61
734.8	12.75
735.0	12.89
735.2	12.81
735.4	12.70
735.6	12.50
735.8	12.28
736.0	12.09
736.2	12.08
736.4	12.03
736.6	12.05
736.8	11.99
737.0	11.84
737.2	11.57
737.4	11.49
737.6	11.49
737.8	11.37
738.0	11.30
738.2	11.31
738.4	11.18
738.6	11.13
738.8	11.03
739.0	10.73
739.2	10.53
739.4	10.57
739.6	10.57
739.8	10.66
740.0	10.64
740.2	10.44
740.4	10.34
740.6	10.27
740.8	10.21
741.0	10.16
741.2	10.07
741.4	10.02
741.6	9.983
741.8	9.914
742.0	9.914
742.2	9.866
742.4	9.695
742.6	9.523
742.8	9.394
743.0	9.320
743.2	9.250
743.4	9.115
743.6	9.077
743.8	9.048
744.0	9.181
744.2	9.202
744.4	9.173
744.6	9.030
744.8	9.041
745.0	8.934
745.2	8.822
745.4	8.709
745.6	8.628
745.8	8.426
746.0	8.442
746.2	8.362
746.4	8.217
746.6	8.112
746.8	8.103
747.0	8.014
747.2	8.208
747.4	8.198
747.6	8.113
747.8	7.996
748.0	8.002
748.2	8.006
748.4	8.075
748.6	7.942
748.8	7.777
749.0	7.667
749.2	7.617
749.4	7.647
749.6	7.615
749.8	7.580
750.0	7.450
750.2	7.405
750.4	7.327
750.6	7.336
750.8	7.322
751.0	7.320
751.2	7.224
751.4	7.195
751.6	7.095
751.8	6.993
752.0	6.796
752.2	6.620
752.4	6.544
752.6	6.618
752.8	6.798
753.0	6.899
753.2	6.765
753.4	6.604
753.6	6.561
753.8	6.539
754.0	6.607
754.2	6.615
754.4	6.480
754.6	6.337
754.8	6.338
755.0	6.295
755.2	6.253
755.4	6.215
755.6	6.197
755.8	6.168
756.0	6.225
756.2	6.145
756.4	5.957
756.6	5.853
756.8	5.789
757.0	5.783
757.2	5.815
757.4	5.826
757.6	5.762
757.8	5.747
758.0	5.630
758.2	5.553
758.4	5.517
758.6	5.537
758.8	5.518
759.0	5.573
759.2	5.486
759.4	5.410
759.6	5.359
759.8	5.385
760.0	5.317
760.2	5.268
760.4	5.220
760.6	5.154
760.8	5.148
761.0	5.216
761.2	5.156
761.4	5.120
761.6	5.075
761.8	4.987
762.0	4.972
762.2	5.002
762.4	4.954
762.6	5.027
762.8	5.010
763.0	4.939
763.2	4.833
763.4	4.811
763.6	4.781
763.8	4.722
764.0	4.714
764.2	4.690
764.4	4.651
764.6	4.677
764.8	4.659
765.0	4.543
765.2	4.471
765.4	4.392
765.6	4.313
765.8	4.244
766.0	4.160
766.2	4.245
766.4	4.304
766.6	4.290
766.8	4.263
767.0	4.135
767.2	4.097
767.4	4.122
767.6	4.187
767.8	4.217
768.0	4.194
768.2	4.153
768.4	4.207
768.6	4.175
768.8	4.243
769.0	4.222
769.2	4.055
769.4	3.967
769.6	3.867
769.8	3.839
770.0	3.890
770.2	3.935
770.4	3.952
770.6	3.920
770.8	3.843
771.0	3.872
771.2	3.841
771.4	3.845
771.6	3.849
771.8	3.787
772.0	3.709
772.2	3.729
772.4	3.734
772.6	3.711
772.8	3.687
773.0	3.602
773.2	3.542
773.4	3.472
773.6	3.468
773.8	3.458
774.0	3.535
774.2	3.559
774.4	3.617
774.6	3.539
774.8	3.488
775.0	3.454
775.2	3.444
775.4	3.391
775.6	3.349
775.8	3.326
776.0	3.330
776.2	3.362
776.4	3.354
776.6	3.298
776.8	3.254
777.0	3.241
777.2	3.214
777.4	3.282
777.6	3.245
777.8	3.201
778.0	3.161
778.2	3.119
778.4	3.096
778.6	3.201
778.8	3.243
779.0	3.241
779.2	3.195
779.4	3.068
779.6	3.074
779.8	3.088
780.0	3.137
780.2	3.142
780.4	3.095
780.6	2.994
780.8	3.056
781.0	3.025
781.2	2.974
781.4	2.969
781.6	2.942
781.8	2.948
782.0	3.006
782.2	2.959
782.4	2.894
782.6	2.854
782.8	2.812
783.0	2.876
783.2	2.893
783.4	2.859
783.6	2.832
783.8	2.829
784.0	2.831
784.2	2.888
784.4	2.905
784.6	2.842
784.8	2.768
785.0	2.721
785.2	2.712
785.4	2.702
785.6	2.740
785.8	2.718
786.0	2.744
786.2	2.807
786.4	2.819
786.6	2.818
786.8	2.803
787.0	2.744
787.2	2.711
787.4	2.724
787.6	2.692
787.8	2.722
788.0	2.681
788.2	2.586
788.4	2.587
788.6	2.624
788.8	2.637
789.0	2.689
789.2	2.665
789.4	2.606
789.6	2.630
789.8	2.652
790.0	2.643
790.2	2.613
790.4	2.560
790.6	2.541
790.8	2.581
791.0	2.596
791.2	2.686
791.4	2.711
791.6	2.660
791.8	2.602
792.0	2.602
792.2	2.534
792.4	2.533
792.6	2.547
792.8	2.505
793.0	2.522
793.2	2.569
793.4	2.544
793.6	2.528
793.8	2.564
794.0	2.560
794.2	2.574
794.4	2.629
794.6	2.590
794.8	2.606
795.0	2.586
795.2	2.510
795.4	2.577
795.6	2.639
795.8	2.660
796.0	2.783
796.2	2.748
796.4	2.668
796.6	2.751
796.8	2.746
797.0	2.790
797.2	2.848
797.4	2.879
797.6	2.926
797.8	3.009
798.0	3.065
798.2	3.176
798.4	3.157
798.6	3.223
798.8	3.307
799.0	3.409
799.2	3.520
799.4	3.717
799.6	3.807
799.8	3.929
800.0	4.072
800.2	4.223
800.4	4.381
800.6	4.616
800.8	4.862
801.0	5.081
801.2	5.375
801.4	5.665
801.6	5.839
801.8	6.136
802.0	6.401
802.2	6.677
802.4	7.022
802.6	7.490
802.8	7.928
803.0	8.429
803.2	8.923
803.4	9.366
803.6	9.742
803.8	10.33
804.0	10.96
804.2	11.67
804.4	12.32
804.6	12.82
804.8	13.44
805.0	14.26
805.2	15.02
805.4	15.85
805.6	16.60
805.8	17.48
806.0	18.49
806.2	19.60
806.4	20.62
806.6	21.49
806.8	22.42
807.0	23.38
807.2	24.34
807.4	25.61
807.6	26.61
807.8	27.67
808.0	29.18
808.2	30.59
808.4	32.12
808.6	33.59
808.8	34.58
809.0	35.48
809.2	36.81
809.4	38.21
809.6	39.67
809.8	41.20
810.0	42.96
810.2	44.72
810.4	46.44
810.6	48.40
810.8	49.90
811.0	51.29
811.2	52.92
811.4	54.57
811.6	55.94
811.8	57.83
812.0	59.71
812.2	61.69
812.4	63.69
812.6	65.44
812.8	66.90
813.0	68.23
813.2	70.12
813.4	72.02
813.6	73.88
813.8	75.64
814.0	77.69
814.2	79.47
814.4	81.66
814.6	83.90
814.8	85.79
815.0	87.59
815.2	89.30
815.4	90.90
815.6	92.28
815.8	94.02
816.0	95.49
816.2	97.18
816.4	98.65
816.6	100.5
816.8	102.3
817.0	104.1
817.2	106.0
817.4	107.5
817.6	109.3
817.8	111.2
818.0	112.9
818.2	114.5
818.4	116.1
818.6	117.3
818.8	118.9
819.0	120.3
819.2	121.2
819.4	122.4
819.6	123.7
819.8	125.2
820.0	126.7
820.2	128.0
820.4	129.1
820.6	130.3
820.8	131.6
821.0	132.6
821.2	133.5
821.4	133.8
821.6	134.4
821.8	135.5
822.0	136.4
822.2	137.1
822.4	137.9
822.6	137.7
822.8	137.8
823.0	138.6
823.2	139.2
823.4	139.8
823.6	140.3
823.8	140.3
824.0	140.5
824.2	140.3
824.4	140.3
824.6	140.0
824.8	139.7
825.0	139.8
825.2	139.8
825.4	139.5
825.6	139.2
825.8	138.9
826.0	138.6
826.2	138.5
826.4	137.9
826.6	136.9
826.8	136.1
827.0	135.0
827.2	134.4
827.4	133.4
827.6	132.2
827.8	131.0
828.0	130.5
828.2	129.6
828.4	128.8
828.6	127.0
828.8	125.5
829.0	124.0
829.2	122.9
829.4	121.8
829.6	120.2
829.8	118.3
830.0	116.6
830.2	115.0
830.4	113.3
830.6	112.0
830.8	109.6
831.0	107.8
831.2	105.9
831.4	104.4
831.6	103.0
831.8	101.5
832.0	99.20
832.2	97.32
832.4	95.12
832.6	93.28
832.8	91.66
833.0	89.87
833.2	87.81
833.4	85.68
833.6	83.55
833.8	81.55
834.0	79.60
834.2	78.05
834.4	76.26
834.6	74.57
834.8	72.61
835.0	70.40
835.2	68.39
835.4	66.82
835.6	65.20
835.8	63.75
836.0	61.80
836.2	59.57
836.4	57.59
836.6	55.70
836.8	54.01
837.0	52.25
837.2	50.48
837.4	48.65
837.6	47.11
837.8	45.46
838.0	43.91
838.2	42.08
838.4	40.68
838.6	39.17
838.8	37.91
839.0	36.67
839.2	35.13
839.4	33.54
839.6	32.37
839.8	30.99
840.0	29.66
840.2	28.45
840.4	27.06
840.6	25.77
840.8	24.73
841.0	23.76
841.2	22.77
841.4	21.80
841.6	20.87
841.8	19.82
842.0	18.89
842.2	17.99
842.4	17.06
842.6	16.25
842.8	15.43
843.0	14.57
843.2	13.88
843.4	13.03
843.6	12.20
843.8	11.44
844.0	10.86
844.2	10.36
844.4	9.998
844.6	9.490
844.8	8.932
845.0	8.430
845.2	7.988
845.4	7.535
845.6	7.103
845.8	6.619
846.0	6.234
846.2	5.918
846.4	5.631
846.6	5.317
846.8	4.974
847.0	4.630
847.2	4.407
847.4	4.143
847.6	3.866
847.8	3.625
848.0	3.444
848.2	3.220
848.4	3.099
848.6	2.978
848.8	2.854
849.0	2.764
849.2	2.646
849.4	2.481
849.6	2.318
849.8	2.204
850.0	2.179

