Sample:	'20211010A(EM)
File name:	G-Ni-CDS-yuan-S2- new.FDS
Run date:	'09:51:57, 03/23/2023
Operator:	Administrator
Comment:	'

Instrument
Model:	F-4700 FL Spectrophotometer
Serial number:	2019-001
ROM Version:	5J24010 00

Instrument parameters
Measurement type:	Wavelength scan
Scan mode:	Emission
Data mode:	Fluorescence
EX WL:	400.0 nm
EM  Start WL:	420.0 nm
EM  End WL:	850.0 nm
Scan speed:	1200 nm/min
Delay:	0.0 s
EX Slit:	10.0 nm
EM Slit:	10.0 nm
PMT Voltage:	450 V
Response:	0.002 s
Corrected spectra:	Off
Shutter control:	On

Processing performed
Savitsky-Golay smoothed
Smoothing order:	3
Number of points:	7
Number of times:	1

Peak integration
Integration method:	Rectangular
Sensitivity:	1
Threshold:	1.000

Peaks
No.	Start(nm)	Apex(nm)	End(nm)	Height(Data)	Valley(nm)	Valley(Data)
1	420.0	554.6	775.6	4182	775.6	7.367
2	775.6	802.8	850.0	214.3	850.0	1.334

Data points
nm	Data
420.0	9.127
420.2	8.716
420.4	8.587
420.6	8.598
420.8	8.506
421.0	8.370
421.2	8.296
421.4	8.306
421.6	8.288
421.8	8.411
422.0	8.463
422.2	8.509
422.4	8.536
422.6	8.487
422.8	8.359
423.0	8.127
423.2	8.002
423.4	8.038
423.6	8.176
423.8	8.316
424.0	8.414
424.2	8.260
424.4	8.143
424.6	8.255
424.8	8.266
425.0	8.147
425.2	8.184
425.4	8.098
425.6	8.210
425.8	8.341
426.0	8.221
426.2	8.194
426.4	8.238
426.6	8.042
426.8	8.062
427.0	7.953
427.2	7.987
427.4	8.176
427.6	8.282
427.8	8.320
428.0	8.514
428.2	8.499
428.4	8.488
428.6	8.454
428.8	8.410
429.0	8.348
429.2	8.349
429.4	8.394
429.6	8.377
429.8	8.338
430.0	8.339
430.2	8.299
430.4	8.330
430.6	8.546
430.8	8.829
431.0	8.800
431.2	8.775
431.4	8.768
431.6	8.754
431.8	8.741
432.0	8.789
432.2	8.592
432.4	8.595
432.6	8.708
432.8	8.856
433.0	9.041
433.2	9.130
433.4	9.056
433.6	9.134
433.8	9.230
434.0	9.123
434.2	9.113
434.4	9.141
434.6	9.110
434.8	9.203
435.0	9.407
435.2	9.405
435.4	9.470
435.6	9.546
435.8	9.572
436.0	9.532
436.2	9.625
436.4	9.721
436.6	9.912
436.8	10.07
437.0	10.12
437.2	10.12
437.4	10.13
437.6	10.22
437.8	10.41
438.0	10.52
438.2	10.69
438.4	10.87
438.6	10.88
438.8	10.80
439.0	10.74
439.2	10.85
439.4	11.09
439.6	11.52
439.8	11.61
440.0	11.53
440.2	11.49
440.4	11.51
440.6	11.47
440.8	11.67
441.0	11.74
441.2	11.92
441.4	12.29
441.6	12.74
441.8	13.00
442.0	13.14
442.2	13.17
442.4	13.06
442.6	13.28
442.8	13.48
443.0	13.65
443.2	13.74
443.4	13.83
443.6	13.77
443.8	13.90
444.0	14.07
444.2	14.44
444.4	14.78
444.6	15.11
444.8	15.21
445.0	15.07
445.2	15.30
445.4	15.59
445.6	15.69
445.8	15.84
446.0	15.95
446.2	15.98
446.4	16.47
446.6	16.79
446.8	16.73
447.0	16.80
447.2	16.98
447.4	17.22
447.6	17.75
447.8	17.92
448.0	18.10
448.2	18.27
448.4	18.43
448.6	18.22
448.8	18.19
449.0	18.23
449.2	18.76
449.4	19.28
449.6	19.92
449.8	20.04
450.0	20.42
450.2	20.81
450.4	20.96
450.6	20.85
450.8	20.93
451.0	20.88
451.2	21.27
451.4	21.73
451.6	22.04
451.8	22.36
452.0	22.78
452.2	22.89
452.4	23.05
452.6	23.27
452.8	23.51
453.0	23.79
453.2	24.01
453.4	24.16
453.6	24.31
453.8	24.59
454.0	25.01
454.2	25.40
454.4	25.61
454.6	25.82
454.8	26.03
455.0	26.23
455.2	26.34
455.4	26.71
455.6	26.72
455.8	26.82
456.0	27.25
456.2	27.97
456.4	28.38
456.6	28.91
456.8	28.91
457.0	28.84
457.2	29.10
457.4	29.49
457.6	29.78
457.8	30.10
458.0	30.17
458.2	30.40
458.4	30.77
458.6	30.95
458.8	31.03
459.0	31.40
459.2	31.41
459.4	31.96
459.6	32.15
459.8	32.55
460.0	32.77
460.2	32.85
460.4	32.60
460.6	33.00
460.8	33.28
461.0	33.74
461.2	34.01
461.4	34.00
461.6	33.81
461.8	34.32
462.0	34.57
462.2	34.72
462.4	34.79
462.6	34.94
462.8	35.10
463.0	35.93
463.2	36.09
463.4	36.38
463.6	36.64
463.8	36.76
464.0	37.13
464.2	37.79
464.4	37.91
464.6	38.18
464.8	38.33
465.0	38.34
465.2	38.80
465.4	39.09
465.6	39.20
465.8	39.48
466.0	39.54
466.2	39.74
466.4	40.17
466.6	40.45
466.8	40.69
467.0	41.02
467.2	41.20
467.4	41.62
467.6	42.06
467.8	42.33
468.0	42.32
468.2	42.49
468.4	42.72
468.6	43.18
468.8	43.82
469.0	44.26
469.2	44.84
469.4	45.56
469.6	45.86
469.8	46.15
470.0	46.14
470.2	46.62
470.4	47.25
470.6	47.80
470.8	48.32
471.0	48.90
471.2	49.28
471.4	50.13
471.6	50.51
471.8	50.68
472.0	51.30
472.2	51.85
472.4	52.12
472.6	52.54
472.8	52.92
473.0	53.07
473.2	53.86
473.4	54.84
473.6	55.54
473.8	56.47
474.0	57.27
474.2	57.71
474.4	58.57
474.6	59.51
474.8	60.19
475.0	61.14
475.2	61.95
475.4	62.64
475.6	63.18
475.8	64.20
476.0	65.04
476.2	66.48
476.4	67.89
476.6	68.74
476.8	69.38
477.0	70.36
477.2	71.26
477.4	72.43
477.6	73.70
477.8	74.86
478.0	76.18
478.2	77.21
478.4	78.14
478.6	79.12
478.8	80.07
479.0	82.03
479.2	83.97
479.4	85.35
479.6	86.82
479.8	88.29
480.0	89.95
480.2	91.78
480.4	93.38
480.6	94.82
480.8	96.20
481.0	97.20
481.2	99.25
481.4	100.7
481.6	102.7
481.8	104.8
482.0	106.6
482.2	108.7
482.4	111.5
482.6	113.4
482.8	115.1
483.0	116.8
483.2	118.1
483.4	120.8
483.6	123.8
483.8	126.3
484.0	128.4
484.2	131.0
484.4	133.4
484.6	136.3
484.8	138.9
485.0	141.2
485.2	143.0
485.4	145.2
485.6	148.0
485.8	151.3
486.0	154.2
486.2	157.5
486.4	160.0
486.6	162.6
486.8	165.3
487.0	169.1
487.2	173.0
487.4	177.2
487.6	180.3
487.8	183.0
488.0	185.9
488.2	189.6
488.4	193.3
488.6	196.4
488.8	200.1
489.0	204.0
489.2	208.8
489.4	214.0
489.6	218.5
489.8	222.5
490.0	226.6
490.2	230.8
490.4	235.6
490.6	240.6
490.8	244.5
491.0	249.0
491.2	253.0
491.4	257.9
491.6	263.4
491.8	269.1
492.0	273.6
492.2	279.1
492.4	283.3
492.6	288.6
492.8	294.3
493.0	299.5
493.2	304.7
493.4	311.3
493.6	317.1
493.8	323.9
494.0	330.5
494.2	335.9
494.4	341.7
494.6	348.2
494.8	354.1
495.0	360.3
495.2	366.7
495.4	372.9
495.6	379.7
495.8	387.2
496.0	394.3
496.2	402.0
496.4	410.5
496.6	418.3
496.8	426.0
497.0	433.2
497.2	439.3
497.4	446.4
497.6	454.5
497.8	461.9
498.0	470.8
498.2	478.6
498.4	486.8
498.6	496.8
498.8	505.1
499.0	513.7
499.2	524.3
499.4	534.5
499.6	544.6
499.8	553.2
500.0	559.8
500.2	568.0
500.4	578.3
500.6	590.3
500.8	601.9
501.0	612.2
501.2	621.5
501.4	630.5
501.6	640.2
501.8	651.0
502.0	661.3
502.2	672.2
502.4	682.2
502.6	694.2
502.8	705.7
503.0	719.4
503.2	730.2
503.4	740.9
503.6	752.0
503.8	764.4
504.0	774.8
504.2	789.2
504.4	802.5
504.6	816.1
504.8	829.5
505.0	842.1
505.2	852.3
505.4	865.3
505.6	879.2
505.8	892.6
506.0	905.5
506.2	919.9
506.4	932.2
506.6	947.3
506.8	961.1
507.0	974.4
507.2	988.1
507.4	1004
507.6	1018
507.8	1033
508.0	1049
508.2	1064
508.4	1078
508.6	1093
508.8	1107
509.0	1121
509.2	1136
509.4	1153
509.6	1170
509.8	1185
510.0	1202
510.2	1216
510.4	1232
510.6	1252
510.8	1269
511.0	1285
511.2	1302
511.4	1319
511.6	1335
511.8	1354
512.0	1370
512.2	1384
512.4	1399
512.6	1415
512.8	1430
513.0	1450
513.2	1470
513.4	1488
513.6	1504
513.8	1521
514.0	1538
514.2	1560
514.4	1580
514.6	1599
514.8	1615
515.0	1632
515.2	1648
515.4	1671
515.6	1691
515.8	1710
516.0	1728
516.2	1746
516.4	1764
516.6	1785
516.8	1803
517.0	1820
517.2	1836
517.4	1856
517.6	1876
517.8	1895
518.0	1913
518.2	1931
518.4	1948
518.6	1967
518.8	1989
519.0	2010
519.2	2031
519.4	2050
519.6	2070
519.8	2089
520.0	2114
520.2	2137
520.4	2158
520.6	2178
520.8	2195
521.0	2212
521.2	2236
521.4	2257
521.6	2278
521.8	2299
522.0	2312
522.2	2326
522.4	2346
522.6	2366
522.8	2385
523.0	2408
523.2	2424
523.4	2443
523.6	2463
523.8	2483
524.0	2502
524.2	2525
524.4	2543
524.6	2567
524.8	2585
525.0	2604
525.2	2625
525.4	2646
525.6	2666
525.8	2684
526.0	2699
526.2	2715
526.4	2734
526.6	2753
526.8	2772
527.0	2790
527.2	2813
527.4	2834
527.6	2855
527.8	2872
528.0	2888
528.2	2905
528.4	2924
528.6	2946
528.8	2964
529.0	2985
529.2	3003
529.4	3019
529.6	3035
529.8	3052
530.0	3067
530.2	3087
530.4	3103
530.6	3119
530.8	3137
531.0	3155
531.2	3173
531.4	3192
531.6	3209
531.8	3225
532.0	3242
532.2	3259
532.4	3277
532.6	3295
532.8	3311
533.0	3323
533.2	3339
533.4	3358
533.6	3376
533.8	3394
534.0	3406
534.2	3420
534.4	3434
534.6	3453
534.8	3467
535.0	3485
535.2	3498
535.4	3513
535.6	3524
535.8	3534
536.0	3545
536.2	3559
536.4	3574
536.6	3592
536.8	3607
537.0	3622
537.2	3637
537.4	3648
537.6	3666
537.8	3684
538.0	3699
538.2	3713
538.4	3722
538.6	3733
538.8	3744
539.0	3755
539.2	3767
539.4	3777
539.6	3789
539.8	3798
540.0	3804
540.2	3814
540.4	3828
540.6	3838
540.8	3848
541.0	3858
541.2	3868
541.4	3880
541.6	3895
541.8	3903
542.0	3913
542.2	3922
542.4	3928
542.6	3937
542.8	3947
543.0	3958
543.2	3970
543.4	3979
543.6	3984
543.8	3992
544.0	3997
544.2	4005
544.4	4012
544.6	4019
544.8	4023
545.0	4028
545.2	4033
545.4	4040
545.6	4051
545.8	4060
546.0	4069
546.2	4076
546.4	4081
546.6	4088
546.8	4093
547.0	4098
547.2	4101
547.4	4106
547.6	4110
547.8	4112
548.0	4116
548.2	4123
548.4	4126
548.6	4134
548.8	4134
549.0	4133
549.2	4136
549.4	4140
549.6	4146
549.8	4153
550.0	4153
550.2	4157
550.4	4158
550.6	4164
550.8	4167
551.0	4169
551.2	4167
551.4	4169
551.6	4167
551.8	4170
552.0	4172
552.2	4174
552.4	4175
552.6	4178
552.8	4177
553.0	4177
553.2	4175
553.4	4174
553.6	4177
553.8	4178
554.0	4182
554.2	4182
554.4	4181
554.6	4182
554.8	4182
555.0	4178
555.2	4175
555.4	4171
555.6	4167
555.8	4163
556.0	4160
556.2	4163
556.4	4164
556.6	4168
556.8	4164
557.0	4160
557.2	4151
557.4	4144
557.6	4140
557.8	4140
558.0	4141
558.2	4143
558.4	4141
558.6	4135
558.8	4132
559.0	4129
559.2	4126
559.4	4122
559.6	4118
559.8	4113
560.0	4109
560.2	4105
560.4	4099
560.6	4095
560.8	4092
561.0	4089
561.2	4088
561.4	4084
561.6	4079
561.8	4067
562.0	4059
562.2	4050
562.4	4044
562.6	4042
562.8	4041
563.0	4033
563.2	4027
563.4	4023
563.6	4014
563.8	4009
564.0	4002
564.2	3995
564.4	3992
564.6	3995
564.8	3990
565.0	3982
565.2	3969
565.4	3958
565.6	3950
565.8	3946
566.0	3942
566.2	3935
566.4	3921
566.6	3913
566.8	3904
567.0	3898
567.2	3894
567.4	3887
567.6	3877
567.8	3871
568.0	3858
568.2	3848
568.4	3838
568.6	3835
568.8	3829
569.0	3824
569.2	3815
569.4	3806
569.6	3801
569.8	3797
570.0	3789
570.2	3781
570.4	3771
570.6	3758
570.8	3747
571.0	3736
571.2	3725
571.4	3714
571.6	3707
571.8	3699
572.0	3689
572.2	3681
572.4	3671
572.6	3662
572.8	3656
573.0	3649
573.2	3637
573.4	3628
573.6	3618
573.8	3609
574.0	3600
574.2	3591
574.4	3577
574.6	3565
574.8	3553
575.0	3544
575.2	3535
575.4	3530
575.6	3522
575.8	3511
576.0	3505
576.2	3495
576.4	3484
576.6	3474
576.8	3464
577.0	3454
577.2	3448
577.4	3434
577.6	3423
577.8	3413
578.0	3406
578.2	3400
578.4	3391
578.6	3381
578.8	3369
579.0	3357
579.2	3347
579.4	3335
579.6	3322
579.8	3312
580.0	3298
580.2	3287
580.4	3281
580.6	3275
580.8	3265
581.0	3255
581.2	3244
581.4	3233
581.6	3228
581.8	3219
582.0	3205
582.2	3192
582.4	3181
582.6	3173
582.8	3167
583.0	3162
583.2	3153
583.4	3140
583.6	3125
583.8	3107
584.0	3094
584.2	3088
584.4	3080
584.6	3070
584.8	3058
585.0	3045
585.2	3037
585.4	3028
585.6	3019
585.8	3008
586.0	2997
586.2	2991
586.4	2979
586.6	2968
586.8	2956
587.0	2946
587.2	2938
587.4	2928
587.6	2916
587.8	2906
588.0	2894
588.2	2888
588.4	2880
588.6	2872
588.8	2859
589.0	2848
589.2	2837
589.4	2828
589.6	2821
589.8	2810
590.0	2794
590.2	2781
590.4	2769
590.6	2760
590.8	2750
591.0	2739
591.2	2730
591.4	2721
591.6	2712
591.8	2703
592.0	2694
592.2	2684
592.4	2674
592.6	2666
592.8	2654
593.0	2642
593.2	2632
593.4	2618
593.6	2609
593.8	2600
594.0	2587
594.2	2577
594.4	2568
594.6	2559
594.8	2550
595.0	2539
595.2	2524
595.4	2515
595.6	2506
595.8	2497
596.0	2488
596.2	2481
596.4	2469
596.6	2460
596.8	2451
597.0	2441
597.2	2429
597.4	2421
597.6	2409
597.8	2398
598.0	2390
598.2	2382
598.4	2373
598.6	2366
598.8	2354
599.0	2341
599.2	2329
599.4	2315
599.6	2305
599.8	2298
600.0	2288
600.2	2284
600.4	2275
600.6	2264
600.8	2253
601.0	2245
601.2	2234
601.4	2224
601.6	2213
601.8	2205
602.0	2195
602.2	2188
602.4	2179
602.6	2168
602.8	2155
603.0	2145
603.2	2137
603.4	2124
603.6	2115
603.8	2107
604.0	2096
604.2	2089
604.4	2083
604.6	2073
604.8	2067
605.0	2058
605.2	2046
605.4	2034
605.6	2025
605.8	2016
606.0	2010
606.2	2002
606.4	1993
606.6	1984
606.8	1974
607.0	1959
607.2	1950
607.4	1941
607.6	1934
607.8	1927
608.0	1919
608.2	1909
608.4	1899
608.6	1891
608.8	1881
609.0	1871
609.2	1862
609.4	1856
609.6	1847
609.8	1840
610.0	1830
610.2	1821
610.4	1812
610.6	1803
610.8	1793
611.0	1783
611.2	1773
611.4	1764
611.6	1755
611.8	1745
612.0	1736
612.2	1727
612.4	1719
612.6	1711
612.8	1701
613.0	1691
613.2	1682
613.4	1673
613.6	1666
613.8	1656
614.0	1647
614.2	1639
614.4	1632
614.6	1625
614.8	1617
615.0	1607
615.2	1602
615.4	1594
615.6	1589
615.8	1582
616.0	1572
616.2	1562
616.4	1552
616.6	1543
616.8	1537
617.0	1528
617.2	1518
617.4	1508
617.6	1499
617.8	1493
618.0	1487
618.2	1482
618.4	1475
618.6	1465
618.8	1456
619.0	1449
619.2	1441
619.4	1433
619.6	1427
619.8	1420
620.0	1411
620.2	1403
620.4	1394
620.6	1386
620.8	1379
621.0	1372
621.2	1365
621.4	1358
621.6	1350
621.8	1343
622.0	1335
622.2	1328
622.4	1320
622.6	1311
622.8	1303
623.0	1294
623.2	1286
623.4	1278
623.6	1270
623.8	1266
624.0	1262
624.2	1255
624.4	1249
624.6	1241
624.8	1234
625.0	1227
625.2	1219
625.4	1212
625.6	1206
625.8	1198
626.0	1190
626.2	1181
626.4	1173
626.6	1166
626.8	1161
627.0	1155
627.2	1150
627.4	1144
627.6	1137
627.8	1129
628.0	1122
628.2	1115
628.4	1109
628.6	1101
628.8	1093
629.0	1087
629.2	1083
629.4	1077
629.6	1071
629.8	1065
630.0	1057
630.2	1052
630.4	1049
630.6	1042
630.8	1035
631.0	1030
631.2	1023
631.4	1018
631.6	1014
631.8	1006
632.0	1000
632.2	993.3
632.4	986.0
632.6	980.9
632.8	973.8
633.0	965.5
633.2	961.0
633.4	955.7
633.6	951.0
633.8	944.8
634.0	939.0
634.2	933.3
634.4	927.8
634.6	923.5
634.8	918.6
635.0	912.4
635.2	906.7
635.4	900.5
635.6	895.4
635.8	891.1
636.0	886.9
636.2	882.4
636.4	875.2
636.6	870.1
636.8	864.6
637.0	860.0
637.2	854.1
637.4	847.7
637.6	840.2
637.8	837.2
638.0	833.9
638.2	830.9
638.4	824.7
638.6	818.6
638.8	811.4
639.0	806.5
639.2	802.1
639.4	796.9
639.6	791.7
639.8	787.1
640.0	780.9
640.2	776.3
640.4	771.4
640.6	766.6
640.8	762.5
641.0	757.8
641.2	751.1
641.4	746.8
641.6	742.7
641.8	738.5
642.0	734.3
642.2	729.4
642.4	724.4
642.6	720.2
642.8	716.5
643.0	711.9
643.2	705.7
643.4	701.0
643.6	696.4
643.8	692.4
644.0	690.6
644.2	685.9
644.4	678.1
644.6	673.7
644.8	667.8
645.0	663.4
645.2	661.1
645.4	656.0
645.6	651.6
645.8	649.0
646.0	645.7
646.2	642.2
646.4	637.7
646.6	633.9
646.8	630.3
647.0	626.2
647.2	622.0
647.4	618.0
647.6	614.5
647.8	610.5
648.0	606.2
648.2	601.7
648.4	596.4
648.6	591.8
648.8	589.2
649.0	585.2
649.2	582.5
649.4	579.9
649.6	577.2
649.8	572.9
650.0	568.9
650.2	564.0
650.4	559.5
650.6	555.5
650.8	552.9
651.0	549.7
651.2	547.2
651.4	543.4
651.6	538.6
651.8	533.4
652.0	530.2
652.2	527.2
652.4	525.5
652.6	523.5
652.8	518.9
653.0	515.9
653.2	512.0
653.4	507.2
653.6	503.7
653.8	500.9
654.0	497.8
654.2	496.5
654.4	492.9
654.6	489.8
654.8	486.8
655.0	483.2
655.2	480.1
655.4	477.2
655.6	472.8
655.8	470.1
656.0	466.1
656.2	462.0
656.4	458.5
656.6	455.8
656.8	452.6
657.0	450.1
657.2	447.1
657.4	444.5
657.6	442.6
657.8	439.9
658.0	436.5
658.2	431.9
658.4	428.8
658.6	425.6
658.8	423.6
659.0	421.5
659.2	419.7
659.4	417.1
659.6	415.4
659.8	411.9
660.0	410.2
660.2	407.5
660.4	405.4
660.6	401.9
660.8	398.0
661.0	393.5
661.2	391.3
661.4	388.5
661.6	386.2
661.8	383.9
662.0	380.5
662.2	377.7
662.4	374.8
662.6	372.8
662.8	370.2
663.0	368.1
663.2	365.5
663.4	363.4
663.6	360.2
663.8	358.5
664.0	357.4
664.2	354.6
664.4	351.7
664.6	348.2
664.8	344.4
665.0	343.0
665.2	342.1
665.4	340.0
665.6	336.9
665.8	333.9
666.0	331.5
666.2	329.8
666.4	327.8
666.6	326.4
666.8	323.9
667.0	321.9
667.2	320.6
667.4	317.6
667.6	314.3
667.8	310.3
668.0	308.0
668.2	305.3
668.4	304.1
668.6	302.0
668.8	300.2
669.0	297.9
669.2	296.4
669.4	294.4
669.6	292.9
669.8	292.2
670.0	290.5
670.2	288.5
670.4	285.3
670.6	283.6
670.8	281.1
671.0	279.1
671.2	276.6
671.4	274.7
671.6	273.1
671.8	271.7
672.0	269.4
672.2	267.0
672.4	264.8
672.6	262.9
672.8	261.4
673.0	259.4
673.2	258.2
673.4	257.0
673.6	255.2
673.8	252.7
674.0	250.0
674.2	248.4
674.4	246.9
674.6	245.6
674.8	243.8
675.0	241.8
675.2	239.8
675.4	239.0
675.6	237.8
675.8	236.7
676.0	234.9
676.2	232.5
676.4	230.3
676.6	228.9
676.8	227.1
677.0	225.6
677.2	224.3
677.4	222.4
677.6	221.3
677.8	220.0
678.0	218.6
678.2	217.2
678.4	216.0
678.6	214.9
678.8	213.9
679.0	211.4
679.2	209.1
679.4	207.0
679.6	205.9
679.8	204.8
680.0	203.7
680.2	201.0
680.4	199.2
680.6	197.4
680.8	196.1
681.0	195.1
681.2	194.1
681.4	191.8
681.6	191.2
681.8	189.4
682.0	188.5
682.2	187.3
682.4	186.5
682.6	185.6
682.8	184.6
683.0	182.0
683.2	180.9
683.4	178.4
683.6	177.3
683.8	177.5
684.0	176.4
684.2	174.9
684.4	173.4
684.6	171.5
684.8	170.6
685.0	169.8
685.2	167.6
685.4	165.4
685.6	163.8
685.8	162.5
686.0	162.5
686.2	161.7
686.4	160.6
686.6	159.1
686.8	158.8
687.0	157.5
687.2	157.0
687.4	156.0
687.6	155.1
687.8	154.2
688.0	153.4
688.2	151.5
688.4	150.0
688.6	148.3
688.8	147.0
689.0	145.9
689.2	145.1
689.4	144.0
689.6	143.1
689.8	142.6
690.0	142.3
690.2	142.2
690.4	141.4
690.6	140.2
690.8	138.3
691.0	136.2
691.2	134.9
691.4	134.3
691.6	133.6
691.8	132.9
692.0	132.3
692.2	131.4
692.4	130.7
692.6	129.8
692.8	128.6
693.0	127.1
693.2	126.4
693.4	126.1
693.6	126.2
693.8	126.0
694.0	124.6
694.2	123.0
694.4	121.6
694.6	120.0
694.8	119.4
695.0	118.8
695.2	118.1
695.4	117.6
695.6	117.3
695.8	116.4
696.0	116.0
696.2	115.3
696.4	114.3
696.6	113.4
696.8	111.7
697.0	110.5
697.2	109.2
697.4	108.6
697.6	108.4
697.8	108.3
698.0	107.8
698.2	107.4
698.4	106.5
698.6	105.6
698.8	104.8
699.0	104.0
699.2	103.5
699.4	102.9
699.6	103.1
699.8	102.3
700.0	101.4
700.2	100.6
700.4	99.89
700.6	99.21
700.8	99.28
701.0	98.70
701.2	98.44
701.4	97.71
701.6	96.22
701.8	94.99
702.0	94.11
702.2	93.56
702.4	93.39
702.6	93.52
702.8	92.68
703.0	92.04
703.2	91.38
703.4	90.55
703.6	89.67
703.8	89.44
704.0	89.34
704.2	88.86
704.4	88.38
704.6	87.27
704.8	86.55
705.0	86.07
705.2	85.92
705.4	85.54
705.6	85.03
705.8	84.22
706.0	83.81
706.2	83.36
706.4	82.94
706.6	82.46
706.8	81.57
707.0	80.59
707.2	79.91
707.4	79.55
707.6	79.33
707.8	78.99
708.0	78.49
708.2	77.66
708.4	77.17
708.6	76.88
708.8	76.20
709.0	75.53
709.2	75.22
709.4	74.84
709.6	74.05
709.8	73.40
710.0	72.55
710.2	71.92
710.4	71.95
710.6	72.22
710.8	71.62
711.0	70.79
711.2	70.15
711.4	69.61
711.6	69.17
711.8	68.91
712.0	68.59
712.2	67.64
712.4	67.64
712.6	67.56
712.8	66.92
713.0	66.59
713.2	65.96
713.4	64.73
713.6	64.27
713.8	63.81
714.0	63.48
714.2	63.75
714.4	63.79
714.6	63.44
714.8	63.21
715.0	62.34
715.2	61.29
715.4	60.59
715.6	60.27
715.8	59.96
716.0	60.34
716.2	59.94
716.4	59.32
716.6	58.69
716.8	58.10
717.0	57.28
717.2	57.15
717.4	56.93
717.6	56.43
717.8	55.85
718.0	55.62
718.2	54.93
718.4	54.37
718.6	54.25
718.8	53.80
719.0	53.64
719.2	53.31
719.4	52.69
719.6	51.78
719.8	51.11
720.0	50.71
720.2	51.00
720.4	50.94
720.6	51.00
720.8	50.54
721.0	49.91
721.2	49.29
721.4	49.01
721.6	48.59
721.8	47.89
722.0	47.40
722.2	47.13
722.4	46.81
722.6	46.70
722.8	46.67
723.0	46.36
723.2	46.13
723.4	45.80
723.6	45.39
723.8	44.84
724.0	44.60
724.2	44.45
724.4	44.01
724.6	43.55
724.8	43.11
725.0	42.54
725.2	42.26
725.4	41.93
725.6	41.59
725.8	41.48
726.0	41.19
726.2	40.86
726.4	40.65
726.6	39.94
726.8	39.40
727.0	38.99
727.2	39.05
727.4	39.05
727.6	39.01
727.8	38.52
728.0	38.26
728.2	37.41
728.4	36.98
728.6	36.81
728.8	36.84
729.0	36.92
729.2	36.91
729.4	36.47
729.6	35.81
729.8	35.31
730.0	35.09
730.2	34.67
730.4	34.27
730.6	34.16
730.8	33.86
731.0	33.72
731.2	33.56
731.4	33.27
731.6	33.32
731.8	33.21
732.0	32.77
732.2	32.71
732.4	32.38
732.6	31.89
732.8	31.60
733.0	31.20
733.2	30.93
733.4	30.92
733.6	30.95
733.8	30.66
734.0	30.37
734.2	30.12
734.4	29.97
734.6	29.67
734.8	29.46
735.0	29.35
735.2	29.40
735.4	29.33
735.6	28.91
735.8	28.31
736.0	27.65
736.2	27.63
736.4	27.76
736.6	27.55
736.8	27.32
737.0	26.98
737.2	26.44
737.4	26.37
737.6	26.33
737.8	26.35
738.0	26.41
738.2	26.23
738.4	25.92
738.6	25.41
738.8	24.88
739.0	24.75
739.2	24.60
739.4	24.33
739.6	24.24
739.8	23.92
740.0	23.91
740.2	24.08
740.4	24.06
740.6	23.75
740.8	23.72
741.0	23.55
741.2	23.63
741.4	23.45
741.6	23.10
741.8	22.88
742.0	22.74
742.2	22.42
742.4	22.16
742.6	22.09
742.8	21.97
743.0	21.87
743.2	21.60
743.4	21.45
743.6	21.20
743.8	21.10
744.0	20.75
744.2	20.61
744.4	20.52
744.6	20.52
744.8	20.31
745.0	19.95
745.2	19.61
745.4	19.49
745.6	19.44
745.8	19.31
746.0	19.34
746.2	19.23
746.4	19.06
746.6	18.77
746.8	18.68
747.0	18.62
747.2	18.83
747.4	18.84
747.6	18.78
747.8	18.38
748.0	18.08
748.2	17.66
748.4	17.56
748.6	17.64
748.8	17.75
749.0	17.71
749.2	17.63
749.4	17.34
749.6	17.27
749.8	17.16
750.0	16.88
750.2	16.84
750.4	16.75
750.6	16.68
750.8	16.71
751.0	16.36
751.2	15.90
751.4	15.87
751.6	15.75
751.8	15.74
752.0	15.64
752.2	15.62
752.4	15.46
752.6	15.38
752.8	15.27
753.0	15.13
753.2	15.07
753.4	15.25
753.6	15.13
753.8	14.90
754.0	14.54
754.2	14.30
754.4	14.39
754.6	14.41
754.8	14.32
755.0	14.15
755.2	13.83
755.4	13.85
755.6	14.04
755.8	14.03
756.0	13.90
756.2	13.67
756.4	13.48
756.6	13.39
756.8	13.35
757.0	13.15
757.2	13.11
757.4	13.13
757.6	13.12
757.8	12.91
758.0	12.73
758.2	12.38
758.4	12.25
758.6	12.20
758.8	12.21
759.0	12.10
759.2	12.13
759.4	12.00
759.6	11.82
759.8	11.67
760.0	11.74
760.2	11.67
760.4	11.75
760.6	11.92
760.8	11.90
761.0	11.58
761.2	11.53
761.4	11.31
761.6	11.22
761.8	11.28
762.0	11.31
762.2	11.13
762.4	11.16
762.6	11.06
762.8	11.03
763.0	10.87
763.2	10.82
763.4	10.67
763.6	10.52
763.8	10.43
764.0	10.45
764.2	10.21
764.4	10.23
764.6	10.17
764.8	10.04
765.0	9.933
765.2	9.844
765.4	9.596
765.6	9.557
765.8	9.589
766.0	9.545
766.2	9.516
766.4	9.659
766.6	9.639
766.8	9.571
767.0	9.618
767.2	9.421
767.4	9.243
767.6	9.228
767.8	9.126
768.0	9.199
768.2	9.180
768.4	9.058
768.6	8.935
768.8	8.841
769.0	8.633
769.2	8.725
769.4	8.613
769.6	8.647
769.8	8.680
770.0	8.606
770.2	8.315
770.4	8.348
770.6	8.235
770.8	8.223
771.0	8.386
771.2	8.387
771.4	8.303
771.6	8.327
771.8	8.156
772.0	7.995
772.2	8.048
772.4	8.048
772.6	8.214
772.8	8.349
773.0	8.360
773.2	8.291
773.4	8.046
773.6	7.812
773.8	7.774
774.0	7.688
774.2	7.723
774.4	7.720
774.6	7.655
774.8	7.685
775.0	7.530
775.2	7.451
775.4	7.410
775.6	7.367
775.8	7.434
776.0	7.697
776.2	7.758
776.4	7.958
776.6	7.925
776.8	7.933
777.0	7.800
777.2	7.788
777.4	7.882
777.6	7.997
777.8	8.058
778.0	8.180
778.2	8.323
778.4	8.412
778.6	8.668
778.8	9.001
779.0	9.060
779.2	9.245
779.4	9.502
779.6	9.700
779.8	10.13
780.0	10.53
780.2	10.65
780.4	10.84
780.6	11.29
780.8	11.80
781.0	12.56
781.2	13.11
781.4	13.78
781.6	14.25
781.8	15.10
782.0	15.94
782.2	16.58
782.4	17.23
782.6	18.04
782.8	18.54
783.0	19.46
783.2	20.57
783.4	21.75
783.6	22.97
783.8	24.25
784.0	25.47
784.2	26.93
784.4	28.51
784.6	30.18
784.8	31.71
785.0	33.15
785.2	34.51
785.4	36.08
785.6	37.76
785.8	39.61
786.0	41.91
786.2	43.98
786.4	45.82
786.6	47.57
786.8	49.38
787.0	51.57
787.2	54.33
787.4	57.02
787.6	59.72
787.8	61.92
788.0	63.78
788.2	66.20
788.4	68.94
788.6	71.42
788.8	74.28
789.0	76.89
789.2	79.25
789.4	82.21
789.6	85.19
789.8	88.14
790.0	91.23
790.2	94.17
790.4	96.44
790.6	99.17
790.8	102.0
791.0	105.7
791.2	110.1
791.4	113.4
791.6	115.6
791.8	118.2
792.0	121.1
792.2	124.5
792.4	128.4
792.6	130.8
792.8	133.5
793.0	136.1
793.2	139.2
793.4	142.3
793.6	145.9
793.8	148.7
794.0	152.2
794.2	154.9
794.4	157.0
794.6	159.7
794.8	162.8
795.0	165.7
795.2	168.2
795.4	170.2
795.6	172.2
795.8	174.8
796.0	177.3
796.2	180.5
796.4	182.9
796.6	184.5
796.8	186.3
797.0	188.4
797.2	190.0
797.4	192.9
797.6	194.8
797.8	196.2
798.0	198.0
798.2	200.0
798.4	201.3
798.6	202.8
798.8	203.2
799.0	203.9
799.2	205.0
799.4	206.4
799.6	208.4
799.8	210.3
800.0	211.5
800.2	212.0
800.4	212.1
800.6	212.3
800.8	212.4
801.0	212.3
801.2	212.5
801.4	213.5
801.6	214.1
801.8	214.2
802.0	213.7
802.2	213.6
802.4	213.8
802.6	214.3
802.8	214.3
803.0	213.8
803.2	212.6
803.4	211.3
803.6	210.4
803.8	209.7
804.0	209.2
804.2	208.3
804.4	206.8
804.6	205.5
804.8	205.2
805.0	204.8
805.2	203.9
805.4	202.1
805.6	200.2
805.8	199.0
806.0	197.3
806.2	195.5
806.4	193.8
806.6	192.1
806.8	189.7
807.0	187.5
807.2	185.5
807.4	183.8
807.6	182.1
807.8	180.2
808.0	177.3
808.2	174.7
808.4	172.5
808.6	170.5
808.8	167.8
809.0	165.4
809.2	163.3
809.4	160.8
809.6	158.8
809.8	157.9
810.0	154.6
810.2	151.6
810.4	148.7
810.6	145.3
810.8	142.8
811.0	141.6
811.2	139.0
811.4	136.9
811.6	134.8
811.8	132.2
812.0	128.9
812.2	125.1
812.4	121.8
812.6	118.9
812.8	116.7
813.0	114.4
813.2	111.5
813.4	108.6
813.6	106.0
813.8	103.1
814.0	99.96
814.2	96.46
814.4	94.00
814.6	92.05
814.8	90.01
815.0	87.69
815.2	85.36
815.4	82.40
815.6	80.42
815.8	77.79
816.0	75.32
816.2	72.56
816.4	69.86
816.6	67.26
816.8	65.21
817.0	62.81
817.2	61.18
817.4	59.36
817.6	57.24
817.8	55.28
818.0	53.44
818.2	51.31
818.4	49.41
818.6	47.29
818.8	45.08
819.0	42.99
819.2	40.97
819.4	39.74
819.6	38.35
819.8	36.74
820.0	35.13
820.2	33.55
820.4	31.93
820.6	30.74
820.8	29.50
821.0	28.16
821.2	26.59
821.4	25.06
821.6	23.73
821.8	22.36
822.0	21.63
822.2	20.74
822.4	19.55
822.6	18.34
822.8	17.30
823.0	16.03
823.2	15.42
823.4	14.91
823.6	14.33
823.8	13.75
824.0	13.17
824.2	12.40
824.4	11.62
824.6	11.01
824.8	10.36
825.0	9.774
825.2	9.238
825.4	8.785
825.6	8.230
825.8	7.737
826.0	7.232
826.2	6.786
826.4	6.383
826.6	6.204
826.8	6.036
827.0	5.744
827.2	5.495
827.4	5.150
827.6	4.857
827.8	4.582
828.0	4.337
828.2	4.190
828.4	4.118
828.6	3.963
828.8	3.868
829.0	3.617
829.2	3.414
829.4	3.293
829.6	3.128
829.8	2.976
830.0	2.930
830.2	2.952
830.4	2.923
830.6	2.836
830.8	2.753
831.0	2.676
831.2	2.631
831.4	2.630
831.6	2.534
831.8	2.523
832.0	2.573
832.2	2.553
832.4	2.547
832.6	2.417
832.8	2.330
833.0	2.300
833.2	2.234
833.4	2.210
833.6	2.238
833.8	2.217
834.0	2.286
834.2	2.283
834.4	2.236
834.6	2.206
834.8	2.150
835.0	2.125
835.2	2.148
835.4	2.211
835.6	2.209
835.8	2.153
836.0	2.093
836.2	2.083
836.4	1.986
836.6	1.959
836.8	1.904
837.0	1.885
837.2	1.937
837.4	2.009
837.6	1.934
837.8	1.906
838.0	1.867
838.2	1.957
838.4	1.968
838.6	1.991
838.8	1.943
839.0	1.859
839.2	1.798
839.4	1.798
839.6	1.773
839.8	1.822
840.0	1.863
840.2	1.854
840.4	1.886
840.6	1.844
840.8	1.814
841.0	1.823
841.2	1.875
841.4	1.771
841.6	1.794
841.8	1.803
842.0	1.714
842.2	1.748
842.4	1.753
842.6	1.693
842.8	1.757
843.0	1.812
843.2	1.734
843.4	1.765
843.6	1.753
843.8	1.760
844.0	1.809
844.2	1.766
844.4	1.676
844.6	1.630
844.8	1.667
845.0	1.645
845.2	1.643
845.4	1.603
845.6	1.573
845.8	1.520
846.0	1.541
846.2	1.495
846.4	1.443
846.6	1.480
846.8	1.513
847.0	1.549
847.2	1.544
847.4	1.545
847.6	1.528
847.8	1.513
848.0	1.512
848.2	1.502
848.4	1.474
848.6	1.539
848.8	1.542
849.0	1.537
849.2	1.512
849.4	1.525
849.6	1.531
849.8	1.480
850.0	1.334

