Sample:	'20211010A(EM)
File name:	R-CDs 4 400uM.FDS
Run date:	'14:34:49, 06/09/2023
Operator:	Administrator
Comment:	'

Instrument
Model:	F-4700 FL Spectrophotometer
Serial number:	2019-001
ROM Version:	5J24010 00

Instrument parameters
Measurement type:	Wavelength scan
Scan mode:	Emission
Data mode:	Fluorescence
EX WL:	520.0 nm
EM  Start WL:	540.0 nm
EM  End WL:	800.0 nm
Scan speed:	1200 nm/min
Delay:	0.0 s
EX Slit:	10.0 nm
EM Slit:	10.0 nm
PMT Voltage:	660 V
Response:	0.002 s
Corrected spectra:	Off
Shutter control:	On

Processing performed
Savitsky-Golay smoothed
Smoothing order:	3
Number of points:	7
Number of times:	1

Peak integration
Integration method:	Rectangular
Sensitivity:	1
Threshold:	1.000

Peaks
No.	Start(nm)	Apex(nm)	End(nm)	Height(Data)	Valley(nm)	Valley(Data)
1	540.0	549.0	550.0	274.3	550.0	266.4
2	550.0	612.4	613.0	1298	613.0	1284
3	613.0	614.0	614.8	1316	614.8	1297
4	614.8	615.2	617.6	1314	617.6	1297
5	617.6	618.6	622.8	1336	622.8	1304
6	622.8	623.8	626.0	1334	626.0	1281
7	626.0	627.0	717.6	1298	717.6	166.2
8	717.6	718.2	727.8	174.1	727.8	119.4
9	727.8	728.2	738.0	123.5	738.0	84.40
10	738.0	738.6	745.4	87.84	745.4	67.87
11	745.4	746.0	749.4	72.25	749.4	57.12
12	749.4	750.0	751.6	60.97	751.6	54.11
13	751.6	752.4	755.2	58.55	755.2	45.78
14	755.2	756.8	760.0	48.88	760.0	41.35
15	760.0	760.8	762.6	43.95	762.6	36.96
16	762.6	763.2	765.4	40.93	765.4	35.57
17	765.4	766.4	771.6	37.37	771.6	28.51
18	771.6	772.4	773.4	31.16	773.4	26.69
19	773.4	774.2	775.6	29.05	775.6	25.69
20	775.6	776.2	778.2	27.38	778.2	22.31
21	778.2	778.8	781.6	24.51	781.6	21.86
22	781.6	782.4	784.8	23.48	784.8	19.52
23	784.8	786.2	789.4	21.73	789.4	18.35
24	789.4	790.2	791.0	21.91	791.0	18.62
25	791.0	792.2	793.6	20.35	793.6	17.39
26	793.6	794.6	797.4	19.16	797.4	15.63

Data points
nm	Data
540.0	205.9
540.2	192.1
540.4	194.6
540.6	205.1
540.8	211.4
541.0	213.2
541.2	210.0
541.4	209.4
541.6	212.8
541.8	215.8
542.0	215.5
542.2	218.4
542.4	220.4
542.6	221.9
542.8	224.6
543.0	224.4
543.2	223.8
543.4	225.7
543.6	229.5
543.8	234.3
544.0	236.7
544.2	236.8
544.4	236.3
544.6	235.6
544.8	237.4
545.0	238.0
545.2	239.2
545.4	239.2
545.6	239.1
545.8	239.9
546.0	241.2
546.2	243.6
546.4	247.1
546.6	250.5
546.8	250.7
547.0	253.3
547.2	252.9
547.4	252.5
547.6	252.7
547.8	257.8
548.0	259.8
548.2	267.1
548.4	270.2
548.6	271.9
548.8	270.5
549.0	274.3
549.2	268.7
549.4	267.7
549.6	269.4
549.8	269.1
550.0	266.4
550.2	270.1
550.4	271.7
550.6	273.0
550.8	277.0
551.0	281.5
551.2	283.5
551.4	284.3
551.6	284.3
551.8	282.6
552.0	281.0
552.2	287.8
552.4	292.3
552.6	297.0
552.8	297.3
553.0	299.4
553.2	299.5
553.4	299.9
553.6	299.5
553.8	304.1
554.0	302.2
554.2	303.4
554.4	306.4
554.6	308.8
554.8	311.5
555.0	313.8
555.2	306.9
555.4	305.6
555.6	307.1
555.8	311.9
556.0	317.6
556.2	319.8
556.4	315.3
556.6	315.2
556.8	317.5
557.0	317.7
557.2	322.8
557.4	326.6
557.6	326.3
557.8	326.9
558.0	329.3
558.2	331.1
558.4	335.6
558.6	338.7
558.8	337.7
559.0	337.7
559.2	337.3
559.4	341.4
559.6	346.0
559.8	350.7
560.0	347.5
560.2	346.6
560.4	345.8
560.6	349.4
560.8	354.7
561.0	356.6
561.2	352.4
561.4	351.2
561.6	354.2
561.8	363.7
562.0	370.8
562.2	372.8
562.4	371.0
562.6	369.0
562.8	364.3
563.0	371.0
563.2	373.9
563.4	378.0
563.6	380.8
563.8	383.7
564.0	379.8
564.2	385.3
564.4	388.7
564.6	390.9
564.8	392.3
565.0	394.1
565.2	391.6
565.4	395.6
565.6	398.7
565.8	402.3
566.0	406.2
566.2	408.5
566.4	406.6
566.6	406.6
566.8	405.8
567.0	408.3
567.2	417.8
567.4	427.2
567.6	432.6
567.8	434.7
568.0	432.7
568.2	430.6
568.4	432.2
568.6	434.9
568.8	433.8
569.0	436.8
569.2	439.1
569.4	440.5
569.6	441.3
569.8	445.7
570.0	452.8
570.2	458.7
570.4	467.6
570.6	469.0
570.8	466.1
571.0	469.1
571.2	475.6
571.4	479.5
571.6	486.7
571.8	490.8
572.0	488.1
572.2	488.5
572.4	490.8
572.6	494.8
572.8	500.8
573.0	506.5
573.2	512.0
573.4	514.2
573.6	521.2
573.8	523.4
574.0	528.8
574.2	529.3
574.4	536.3
574.6	538.1
574.8	544.4
575.0	548.6
575.2	548.1
575.4	543.0
575.6	542.8
575.8	547.0
576.0	557.2
576.2	565.5
576.4	568.5
576.6	571.4
576.8	574.2
577.0	576.5
577.2	577.6
577.4	581.3
577.6	587.5
577.8	597.3
578.0	606.5
578.2	608.6
578.4	608.7
578.6	613.4
578.8	618.4
579.0	624.2
579.2	629.5
579.4	632.9
579.6	634.2
579.8	635.5
580.0	640.2
580.2	644.9
580.4	651.1
580.6	651.6
580.8	652.3
581.0	653.1
581.2	658.6
581.4	666.9
581.6	679.1
581.8	686.1
582.0	688.3
582.2	687.0
582.4	689.9
582.6	692.7
582.8	699.5
583.0	705.3
583.2	709.0
583.4	713.0
583.6	720.0
583.8	723.8
584.0	726.2
584.2	730.6
584.4	737.7
584.6	743.2
584.8	746.6
585.0	752.0
585.2	750.6
585.4	750.8
585.6	759.2
585.8	765.8
586.0	773.5
586.2	786.9
586.4	792.3
586.6	793.9
586.8	798.0
587.0	798.8
587.2	806.5
587.4	815.8
587.6	828.6
587.8	829.4
588.0	829.6
588.2	830.0
588.4	834.8
588.6	841.2
588.8	846.7
589.0	845.8
589.2	850.7
589.4	866.1
589.6	876.0
589.8	882.9
590.0	877.6
590.2	879.8
590.4	883.3
590.6	894.4
590.8	897.6
591.0	899.9
591.2	900.2
591.4	906.2
591.6	912.8
591.8	918.7
592.0	920.3
592.2	919.4
592.4	927.8
592.6	940.6
592.8	953.6
593.0	965.8
593.2	963.1
593.4	956.6
593.6	955.6
593.8	960.1
594.0	969.1
594.2	978.4
594.4	979.6
594.6	986.5
594.8	990.3
595.0	989.2
595.2	988.4
595.4	992.1
595.6	1001
595.8	1011
596.0	1019
596.2	1016
596.4	1018
596.6	1026
596.8	1040
597.0	1044
597.2	1049
597.4	1045
597.6	1046
597.8	1047
598.0	1053
598.2	1059
598.4	1073
598.6	1082
598.8	1080
599.0	1082
599.2	1084
599.4	1093
599.6	1102
599.8	1105
600.0	1106
600.2	1106
600.4	1113
600.6	1124
600.8	1128
601.0	1122
601.2	1121
601.4	1120
601.6	1130
601.8	1136
602.0	1146
602.2	1152
602.4	1157
602.6	1164
602.8	1163
603.0	1155
603.2	1158
603.4	1170
603.6	1177
603.8	1180
604.0	1188
604.2	1187
604.4	1187
604.6	1192
604.8	1190
605.0	1188
605.2	1200
605.4	1203
605.6	1214
605.8	1225
606.0	1227
606.2	1229
606.4	1228
606.6	1225
606.8	1231
607.0	1234
607.2	1234
607.4	1231
607.6	1229
607.8	1237
608.0	1240
608.2	1242
608.4	1252
608.6	1250
608.8	1251
609.0	1260
609.2	1257
609.4	1259
609.6	1267
609.8	1267
610.0	1268
610.2	1270
610.4	1265
610.6	1262
610.8	1263
611.0	1262
611.2	1275
611.4	1281
611.6	1285
611.8	1287
612.0	1291
612.2	1295
612.4	1298
612.6	1292
612.8	1284
613.0	1284
613.2	1287
613.4	1304
613.6	1310
613.8	1316
614.0	1316
614.2	1302
614.4	1299
614.6	1300
614.8	1297
615.0	1309
615.2	1314
615.4	1306
615.6	1310
615.8	1312
616.0	1306
616.2	1311
616.4	1303
616.6	1300
616.8	1304
617.0	1316
617.2	1313
617.4	1309
617.6	1297
617.8	1301
618.0	1310
618.2	1325
618.4	1331
618.6	1336
618.8	1331
619.0	1333
619.2	1323
619.4	1317
619.6	1321
619.8	1325
620.0	1325
620.2	1330
620.4	1323
620.6	1319
620.8	1319
621.0	1328
621.2	1325
621.4	1325
621.6	1314
621.8	1309
622.0	1310
622.2	1321
622.4	1317
622.6	1318
622.8	1304
623.0	1305
623.2	1312
623.4	1322
623.6	1331
623.8	1334
624.0	1328
624.2	1315
624.4	1310
624.6	1309
624.8	1305
625.0	1300
625.2	1296
625.4	1291
625.6	1288
625.8	1287
626.0	1281
626.2	1285
626.4	1287
626.6	1293
626.8	1296
627.0	1298
627.2	1292
627.4	1294
627.6	1289
627.8	1286
628.0	1289
628.2	1284
628.4	1282
628.6	1283
628.8	1281
629.0	1279
629.2	1281
629.4	1275
629.6	1270
629.8	1260
630.0	1256
630.2	1255
630.4	1255
630.6	1250
630.8	1249
631.0	1250
631.2	1249
631.4	1250
631.6	1245
631.8	1237
632.0	1239
632.2	1238
632.4	1237
632.6	1247
632.8	1236
633.0	1229
633.2	1230
633.4	1227
633.6	1231
633.8	1246
634.0	1227
634.2	1214
634.4	1207
634.6	1201
634.8	1202
635.0	1212
635.2	1207
635.4	1209
635.6	1210
635.8	1204
636.0	1197
636.2	1188
636.4	1178
636.6	1174
636.8	1166
637.0	1168
637.2	1168
637.4	1173
637.6	1176
637.8	1170
638.0	1157
638.2	1148
638.4	1140
638.6	1145
638.8	1145
639.0	1145
639.2	1147
639.4	1142
639.6	1140
639.8	1140
640.0	1131
640.2	1130
640.4	1133
640.6	1123
640.8	1118
641.0	1114
641.2	1109
641.4	1111
641.6	1113
641.8	1105
642.0	1097
642.2	1093
642.4	1089
642.6	1080
642.8	1075
643.0	1074
643.2	1064
643.4	1067
643.6	1067
643.8	1065
644.0	1060
644.2	1062
644.4	1051
644.6	1048
644.8	1042
645.0	1041
645.2	1039
645.4	1043
645.6	1036
645.8	1027
646.0	1016
646.2	1004
646.4	1004
646.6	1012
646.8	1013
647.0	1009
647.2	1002
647.4	991.5
647.6	985.3
647.8	986.0
648.0	984.9
648.2	977.7
648.4	971.4
648.6	968.7
648.8	964.7
649.0	965.8
649.2	968.3
649.4	966.9
649.6	966.0
649.8	961.1
650.0	959.9
650.2	959.4
650.4	954.4
650.6	941.7
650.8	928.4
651.0	913.8
651.2	920.4
651.4	926.9
651.6	936.8
651.8	931.3
652.0	921.4
652.2	910.1
652.4	911.2
652.6	910.2
652.8	909.1
653.0	900.2
653.2	887.4
653.4	881.0
653.6	882.1
653.8	881.2
654.0	879.7
654.2	877.5
654.4	866.8
654.6	859.5
654.8	856.5
655.0	860.4
655.2	866.4
655.4	861.1
655.6	857.4
655.8	849.7
656.0	838.4
656.2	837.9
656.4	839.1
656.6	834.6
656.8	836.8
657.0	830.8
657.2	821.3
657.4	811.4
657.6	809.5
657.8	805.5
658.0	805.5
658.2	804.1
658.4	805.5
658.6	802.2
658.8	800.2
659.0	792.1
659.2	786.4
659.4	779.1
659.6	773.0
659.8	768.2
660.0	768.3
660.2	765.6
660.4	759.7
660.6	755.4
660.8	752.3
661.0	752.2
661.2	750.1
661.4	752.4
661.6	746.7
661.8	745.5
662.0	741.2
662.2	737.8
662.4	731.4
662.6	725.4
662.8	716.0
663.0	718.2
663.2	717.7
663.4	720.4
663.6	719.9
663.8	708.0
664.0	700.9
664.2	698.3
664.4	697.4
664.6	700.6
664.8	698.0
665.0	694.8
665.2	692.1
665.4	689.9
665.6	691.0
665.8	691.7
666.0	685.1
666.2	684.7
666.4	678.5
666.6	670.2
666.8	664.3
667.0	660.7
667.2	658.6
667.4	660.1
667.6	659.2
667.8	648.4
668.0	641.8
668.2	639.3
668.4	642.4
668.6	638.5
668.8	633.5
669.0	623.8
669.2	616.8
669.4	616.8
669.6	614.4
669.8	611.1
670.0	609.0
670.2	601.1
670.4	600.3
670.6	604.9
670.8	606.5
671.0	609.6
671.2	607.4
671.4	596.3
671.6	589.5
671.8	580.7
672.0	581.7
672.2	579.0
672.4	576.2
672.6	572.1
672.8	566.1
673.0	561.9
673.2	563.1
673.4	560.1
673.6	561.8
673.8	559.6
674.0	555.9
674.2	550.9
674.4	546.9
674.6	539.5
674.8	534.8
675.0	529.5
675.2	531.0
675.4	529.5
675.6	530.7
675.8	532.1
676.0	532.4
676.2	528.1
676.4	523.6
676.6	521.9
676.8	513.8
677.0	509.2
677.2	507.3
677.4	504.7
677.6	500.8
677.8	503.0
678.0	495.1
678.2	489.4
678.4	486.0
678.6	485.0
678.8	484.6
679.0	484.1
679.2	480.2
679.4	476.3
679.6	472.3
679.8	470.3
680.0	468.4
680.2	471.4
680.4	470.8
680.6	467.9
680.8	466.8
681.0	461.9
681.2	457.8
681.4	460.5
681.6	458.1
681.8	453.6
682.0	452.9
682.2	446.1
682.4	442.0
682.6	439.9
682.8	435.0
683.0	432.0
683.2	433.2
683.4	431.1
683.6	430.5
683.8	430.3
684.0	424.4
684.2	425.6
684.4	427.2
684.6	423.9
684.8	424.6
685.0	417.3
685.2	412.1
685.4	411.9
685.6	407.7
685.8	400.5
686.0	400.7
686.2	394.2
686.4	394.7
686.6	395.0
686.8	387.8
687.0	385.8
687.2	385.8
687.4	384.6
687.6	384.8
687.8	387.2
688.0	384.2
688.2	384.0
688.4	379.2
688.6	372.2
688.8	370.2
689.0	368.7
689.2	363.8
689.4	361.2
689.6	358.4
689.8	356.4
690.0	355.7
690.2	352.7
690.4	350.9
690.6	347.5
690.8	345.2
691.0	347.3
691.2	347.5
691.4	350.2
691.6	346.1
691.8	338.2
692.0	336.2
692.2	337.2
692.4	339.3
692.6	341.7
692.8	334.5
693.0	330.5
693.2	330.8
693.4	331.9
693.6	330.1
693.8	325.4
694.0	322.4
694.2	316.5
694.4	317.4
694.6	319.7
694.8	319.3
695.0	316.7
695.2	318.9
695.4	316.4
695.6	315.8
695.8	311.4
696.0	308.9
696.2	305.6
696.4	304.9
696.6	304.1
696.8	303.0
697.0	298.9
697.2	296.0
697.4	292.2
697.6	290.1
697.8	290.3
698.0	294.4
698.2	297.1
698.4	294.4
698.6	288.4
698.8	287.0
699.0	286.3
699.2	286.1
699.4	286.4
699.6	285.1
699.8	279.6
700.0	276.3
700.2	272.4
700.4	270.1
700.6	270.5
700.8	272.2
701.0	270.6
701.2	267.8
701.4	266.3
701.6	267.0
701.8	264.7
702.0	263.2
702.2	261.1
702.4	259.1
702.6	261.4
702.8	263.7
703.0	259.9
703.2	256.2
703.4	254.3
703.6	250.1
703.8	251.0
704.0	252.3
704.2	248.9
704.4	243.3
704.6	242.8
704.8	241.4
705.0	242.7
705.2	242.0
705.4	241.7
705.6	236.0
705.8	233.5
706.0	232.6
706.2	230.4
706.4	226.4
706.6	228.0
706.8	227.4
707.0	230.8
707.2	230.7
707.4	227.7
707.6	227.4
707.8	226.8
708.0	228.5
708.2	225.9
708.4	218.9
708.6	211.5
708.8	210.9
709.0	212.0
709.2	221.0
709.4	222.5
709.6	220.8
709.8	214.8
710.0	210.4
710.2	206.1
710.4	209.0
710.6	207.3
710.8	203.3
711.0	204.5
711.2	206.7
711.4	204.7
711.6	204.0
711.8	205.5
712.0	203.4
712.2	204.8
712.4	204.3
712.6	203.2
712.8	197.4
713.0	196.5
713.2	195.5
713.4	192.9
713.6	188.1
713.8	188.3
714.0	185.6
714.2	182.6
714.4	184.3
714.6	185.2
714.8	185.5
715.0	183.0
715.2	179.4
715.4	177.8
715.6	177.2
715.8	179.5
716.0	183.5
716.2	182.9
716.4	178.7
716.6	175.8
716.8	171.9
717.0	168.8
717.2	167.2
717.4	166.6
717.6	166.2
717.8	168.3
718.0	171.4
718.2	174.1
718.4	171.8
718.6	167.2
718.8	163.8
719.0	164.0
719.2	163.9
719.4	164.7
719.6	160.4
719.8	157.4
720.0	153.7
720.2	154.5
720.4	154.5
720.6	154.3
720.8	154.6
721.0	154.4
721.2	151.4
721.4	150.6
721.6	149.0
721.8	147.8
722.0	149.1
722.2	148.4
722.4	146.3
722.6	147.3
722.8	145.0
723.0	143.2
723.2	141.4
723.4	140.8
723.6	141.9
723.8	144.2
724.0	141.8
724.2	141.0
724.4	136.5
724.6	134.9
724.8	135.3
725.0	134.5
725.2	134.9
725.4	136.6
725.6	133.9
725.8	131.3
726.0	133.0
726.2	131.4
726.4	131.3
726.6	129.1
726.8	128.0
727.0	126.3
727.2	125.6
727.4	121.5
727.6	120.4
727.8	119.4
728.0	122.5
728.2	123.5
728.4	122.7
728.6	121.6
728.8	121.0
729.0	120.0
729.2	119.0
729.4	117.5
729.6	115.6
729.8	114.0
730.0	113.4
730.2	114.5
730.4	114.8
730.6	114.4
730.8	112.3
731.0	109.7
731.2	108.9
731.4	109.2
731.6	107.9
731.8	108.8
732.0	109.1
732.2	109.6
732.4	108.5
732.6	105.8
732.8	102.8
733.0	103.5
733.2	103.4
733.4	103.7
733.6	102.3
733.8	100.6
734.0	97.25
734.2	96.16
734.4	98.33
734.6	99.12
734.8	99.92
735.0	97.75
735.2	95.32
735.4	95.48
735.6	96.45
735.8	95.71
736.0	92.92
736.2	88.66
736.4	89.25
736.6	89.46
736.8	89.28
737.0	90.41
737.2	90.30
737.4	89.10
737.6	87.32
737.8	84.42
738.0	84.40
738.2	85.20
738.4	87.18
738.6	87.84
738.8	87.56
739.0	87.67
739.2	87.37
739.4	85.13
739.6	82.94
739.8	80.68
740.0	79.83
740.2	80.79
740.4	82.15
740.6	82.17
740.8	81.65
741.0	79.15
741.2	77.52
741.4	78.86
741.6	80.54
741.8	79.48
742.0	79.44
742.2	77.45
742.4	75.16
742.6	75.28
742.8	74.74
743.0	70.98
743.2	70.92
743.4	69.98
743.6	70.38
743.8	69.92
744.0	70.03
744.2	69.01
744.4	69.83
744.6	69.88
744.8	71.29
745.0	69.46
745.2	68.74
745.4	67.87
745.6	69.29
745.8	71.06
746.0	72.25
746.2	70.96
746.4	68.82
746.6	66.72
746.8	66.85
747.0	67.05
747.2	65.23
747.4	62.25
747.6	61.79
747.8	63.48
748.0	65.22
748.2	65.65
748.4	62.91
748.6	60.44
748.8	59.96
749.0	58.68
749.2	57.66
749.4	57.12
749.6	57.37
749.8	59.30
750.0	60.97
750.2	60.24
750.4	59.01
750.6	58.86
750.8	59.38
751.0	58.09
751.2	56.53
751.4	54.95
751.6	54.11
751.8	54.22
752.0	57.21
752.2	58.12
752.4	58.55
752.6	57.46
752.8	56.56
753.0	54.63
753.2	54.44
753.4	53.76
753.6	51.64
753.8	51.55
754.0	50.67
754.2	52.63
754.4	52.76
754.6	51.65
754.8	49.76
755.0	48.74
755.2	45.78
755.4	47.95
755.6	48.45
755.8	47.50
756.0	47.97
756.2	47.56
756.4	46.48
756.6	48.18
756.8	48.88
757.0	48.79
757.2	47.92
757.4	47.76
757.6	47.29
757.8	47.70
758.0	47.42
758.2	46.21
758.4	45.23
758.6	45.61
758.8	46.16
759.0	46.07
759.2	45.06
759.4	43.03
759.6	42.29
759.8	42.15
760.0	41.35
760.2	41.37
760.4	42.28
760.6	43.57
760.8	43.95
761.0	43.58
761.2	41.98
761.4	42.21
761.6	43.45
761.8	43.63
762.0	42.66
762.2	39.91
762.4	37.24
762.6	36.96
762.8	38.32
763.0	39.19
763.2	40.93
763.4	40.81
763.6	40.10
763.8	39.03
764.0	38.01
764.2	36.47
764.4	36.75
764.6	36.82
764.8	36.70
765.0	36.46
765.2	36.31
765.4	35.57
765.6	35.94
765.8	36.64
766.0	37.03
766.2	37.11
766.4	37.37
766.6	37.05
766.8	36.60
767.0	35.46
767.2	33.99
767.4	31.88
767.6	32.65
767.8	33.25
768.0	32.70
768.2	32.31
768.4	32.45
768.6	31.78
768.8	33.27
769.0	32.47
769.2	31.26
769.4	31.33
769.6	31.62
769.8	31.98
770.0	32.00
770.2	31.21
770.4	31.07
770.6	31.52
770.8	31.27
771.0	31.33
771.2	29.94
771.4	29.38
771.6	28.51
771.8	28.55
772.0	29.34
772.2	30.04
772.4	31.16
772.6	30.82
772.8	30.05
773.0	29.08
773.2	28.05
773.4	26.69
773.6	27.59
773.8	28.00
774.0	28.63
774.2	29.05
774.4	28.70
774.6	27.81
774.8	27.65
775.0	27.59
775.2	26.88
775.4	26.35
775.6	25.69
775.8	26.16
776.0	26.90
776.2	27.38
776.4	27.31
776.6	26.89
776.8	25.95
777.0	26.06
777.2	26.45
777.4	26.27
777.6	25.32
777.8	24.75
778.0	23.04
778.2	22.31
778.4	22.50
778.6	24.01
778.8	24.51
779.0	24.27
779.2	23.42
779.4	23.31
779.6	23.31
779.8	24.05
780.0	23.85
780.2	22.79
780.4	22.71
780.6	22.98
780.8	23.45
781.0	23.12
781.2	23.07
781.4	22.46
781.6	21.86
781.8	22.25
782.0	23.03
782.2	23.28
782.4	23.48
782.6	23.18
782.8	22.62
783.0	22.22
783.2	22.76
783.4	22.70
783.6	22.85
783.8	22.67
784.0	22.39
784.2	21.78
784.4	21.34
784.6	19.83
784.8	19.52
785.0	19.66
785.2	19.89
785.4	20.82
785.6	21.43
785.8	21.48
786.0	21.36
786.2	21.73
786.4	20.58
786.6	21.02
786.8	21.69
787.0	20.78
787.2	20.30
787.4	20.52
787.6	20.13
787.8	21.14
788.0	21.49
788.2	19.73
788.4	20.45
788.6	20.44
788.8	20.30
789.0	20.19
789.2	19.62
789.4	18.35
789.6	20.12
789.8	20.53
790.0	21.72
790.2	21.91
790.4	20.38
790.6	18.88
790.8	18.80
791.0	18.62
791.2	19.12
791.4	19.02
791.6	18.88
791.8	19.06
792.0	19.63
792.2	20.35
792.4	19.89
792.6	19.13
792.8	18.71
793.0	17.97
793.2	18.06
793.4	17.90
793.6	17.39
793.8	17.46
794.0	18.10
794.2	18.68
794.4	19.09
794.6	19.16
794.8	18.50
795.0	17.28
795.2	17.12
795.4	17.68
795.6	17.88
795.8	18.91
796.0	18.20
796.2	16.91
796.4	16.52
796.6	16.03
796.8	16.66
797.0	16.86
797.2	15.90
797.4	15.63
797.6	15.74
797.8	15.66
798.0	16.71
798.2	17.22
798.4	17.89
798.6	17.58
798.8	17.01
799.0	16.10
799.2	15.48
799.4	15.21
799.6	15.70
799.8	16.67
800.0	18.08

