Sample:	'20211010A(EM)
File name:	R-CDs 3 300uM.FDS
Run date:	'14:30:52, 06/09/2023
Operator:	Administrator
Comment:	'

Instrument
Model:	F-4700 FL Spectrophotometer
Serial number:	2019-001
ROM Version:	5J24010 00

Instrument parameters
Measurement type:	Wavelength scan
Scan mode:	Emission
Data mode:	Fluorescence
EX WL:	520.0 nm
EM  Start WL:	540.0 nm
EM  End WL:	800.0 nm
Scan speed:	1200 nm/min
Delay:	0.0 s
EX Slit:	10.0 nm
EM Slit:	10.0 nm
PMT Voltage:	660 V
Response:	0.002 s
Corrected spectra:	Off
Shutter control:	On

Processing performed
Savitsky-Golay smoothed
Smoothing order:	3
Number of points:	7
Number of times:	1

Peak integration
Integration method:	Rectangular
Sensitivity:	1
Threshold:	1.000

Peaks
No.	Start(nm)	Apex(nm)	End(nm)	Height(Data)	Valley(nm)	Valley(Data)
1	540.0	615.8	616.4	1551	616.4	1523
2	616.4	618.0	619.8	1560	619.8	1531
3	619.8	620.4	622.0	1546	622.0	1529
4	622.0	623.4	696.0	1544	696.0	339.1
5	696.0	697.2	709.6	344.5	709.6	237.9
6	709.6	710.6	727.0	245.6	727.0	140.0
7	727.0	728.0	741.6	143.2	741.6	84.68
8	741.6	742.4	745.2	86.22	745.2	72.44
9	745.2	746.0	750.0	77.28	750.0	64.49
10	750.0	750.6	753.4	66.98	753.4	56.48
11	753.4	754.2	755.0	60.11	755.0	55.29
12	755.0	755.8	767.0	58.64	767.0	36.56
13	767.0	767.6	769.4	39.51	769.4	33.61
14	769.4	769.8	774.0	35.36	774.0	29.33
15	774.0	774.8	776.6	31.34	776.6	26.52
16	776.6	777.8	781.0	28.99	781.0	23.98
17	781.0	782.2	783.0	25.51	783.0	23.59
18	783.0	784.0	785.2	24.95	785.2	21.61
19	785.2	787.0	788.0	23.91	788.0	20.25
20	788.0	789.0	789.8	21.83	789.8	18.60
21	789.8	790.6	792.8	21.53	792.8	17.42
22	792.8	793.8	797.2	20.74	797.2	16.58
23	797.2	797.8	800.0	19.78	800.0	17.59

Data points
nm	Data
540.0	188.0
540.2	187.2
540.4	193.9
540.6	203.5
540.8	209.0
541.0	208.5
541.2	206.6
541.4	199.4
541.6	198.1
541.8	202.2
542.0	205.3
542.2	207.4
542.4	208.4
542.6	209.1
542.8	214.2
543.0	220.5
543.2	222.1
543.4	221.8
543.6	220.6
543.8	219.7
544.0	226.8
544.2	233.3
544.4	236.4
544.6	234.8
544.8	233.5
545.0	235.2
545.2	237.6
545.4	241.5
545.6	245.9
545.8	245.7
546.0	246.5
546.2	244.8
546.4	240.0
546.6	242.3
546.8	245.0
547.0	249.8
547.2	255.7
547.4	254.4
547.6	254.8
547.8	258.0
548.0	258.0
548.2	258.4
548.4	260.5
548.6	258.9
548.8	262.3
549.0	262.8
549.2	265.4
549.4	266.2
549.6	273.3
549.8	277.0
550.0	282.8
550.2	282.0
550.4	281.4
550.6	281.0
550.8	285.0
551.0	286.9
551.2	290.0
551.4	293.9
551.6	296.1
551.8	298.0
552.0	300.1
552.2	296.7
552.4	295.1
552.6	296.4
552.8	298.6
553.0	302.3
553.2	307.4
553.4	303.8
553.6	303.4
553.8	303.7
554.0	307.0
554.2	312.0
554.4	314.9
554.6	311.3
554.8	309.2
555.0	312.8
555.2	317.4
555.4	320.8
555.6	326.0
555.8	322.7
556.0	324.5
556.2	327.1
556.4	326.4
556.6	331.2
556.8	336.6
557.0	335.1
557.2	340.2
557.4	337.3
557.6	332.8
557.8	336.7
558.0	339.0
558.2	343.0
558.4	350.2
558.6	355.3
558.8	358.6
559.0	363.2
559.2	362.4
559.4	364.1
559.6	363.4
559.8	366.5
560.0	363.1
560.2	366.1
560.4	369.5
560.6	370.8
560.8	371.9
561.0	375.9
561.2	372.0
561.4	377.8
561.6	384.5
561.8	382.9
562.0	391.4
562.2	398.6
562.4	398.1
562.6	395.7
562.8	397.0
563.0	394.6
563.2	400.3
563.4	406.5
563.6	412.6
563.8	415.9
564.0	421.7
564.2	420.7
564.4	420.3
564.6	417.5
564.8	424.8
565.0	426.9
565.2	429.8
565.4	431.0
565.6	437.6
565.8	441.9
566.0	449.9
566.2	454.5
566.4	450.1
566.6	452.0
566.8	454.9
567.0	460.0
567.2	465.0
567.4	471.1
567.6	467.0
567.8	472.9
568.0	474.4
568.2	477.3
568.4	479.3
568.6	479.5
568.8	485.9
569.0	493.9
569.2	502.9
569.4	508.6
569.6	505.0
569.8	503.4
570.0	510.5
570.2	517.3
570.4	524.3
570.6	525.8
570.8	523.2
571.0	529.2
571.2	538.9
571.4	545.6
571.6	542.4
571.8	540.4
572.0	543.3
572.2	549.2
572.4	554.2
572.6	564.7
572.8	565.4
573.0	569.0
573.2	576.9
573.4	579.5
573.6	578.7
573.8	587.5
574.0	591.2
574.2	599.1
574.4	605.7
574.6	609.8
574.8	614.2
575.0	617.4
575.2	628.4
575.4	633.3
575.6	637.1
575.8	640.6
576.0	646.4
576.2	654.2
576.4	665.2
576.6	662.1
576.8	665.2
577.0	665.0
577.2	664.1
577.4	667.8
577.6	674.9
577.8	680.3
578.0	684.7
578.2	687.3
578.4	690.5
578.6	697.4
578.8	709.7
579.0	713.1
579.2	712.5
579.4	716.3
579.6	723.1
579.8	731.3
580.0	740.3
580.2	744.6
580.4	750.2
580.6	758.8
580.8	762.7
581.0	768.4
581.2	773.4
581.4	784.2
581.6	789.1
581.8	795.3
582.0	800.0
582.2	808.0
582.4	812.4
582.6	824.5
582.8	827.2
583.0	834.8
583.2	831.4
583.4	835.3
583.6	838.6
583.8	847.4
584.0	854.3
584.2	863.0
584.4	863.9
584.6	874.3
584.8	884.8
585.0	891.2
585.2	895.8
585.4	897.7
585.6	893.4
585.8	901.7
586.0	907.7
586.2	915.7
586.4	925.1
586.6	934.6
586.8	938.0
587.0	942.8
587.2	940.2
587.4	938.9
587.6	944.8
587.8	955.5
588.0	968.5
588.2	972.6
588.4	974.1
588.6	980.3
588.8	989.8
589.0	997.6
589.2	1009
589.4	1016
589.6	1016
589.8	1023
590.0	1023
590.2	1026
590.4	1035
590.6	1047
590.8	1054
591.0	1056
591.2	1053
591.4	1053
591.6	1066
591.8	1079
592.0	1092
592.2	1093
592.4	1099
592.6	1101
592.8	1113
593.0	1115
593.2	1123
593.4	1126
593.6	1134
593.8	1140
594.0	1147
594.2	1156
594.4	1162
594.6	1166
594.8	1169
595.0	1178
595.2	1177
595.4	1181
595.6	1180
595.8	1189
596.0	1199
596.2	1212
596.4	1217
596.6	1219
596.8	1216
597.0	1227
597.2	1231
597.4	1236
597.6	1248
597.8	1250
598.0	1249
598.2	1250
598.4	1255
598.6	1256
598.8	1263
599.0	1267
599.2	1273
599.4	1274
599.6	1280
599.8	1288
600.0	1293
600.2	1309
600.4	1312
600.6	1308
600.8	1309
601.0	1319
601.2	1324
601.4	1340
601.6	1340
601.8	1340
602.0	1343
602.2	1351
602.4	1351
602.6	1357
602.8	1354
603.0	1354
603.2	1358
603.4	1371
603.6	1380
603.8	1384
604.0	1391
604.2	1390
604.4	1394
604.6	1401
604.8	1399
605.0	1394
605.2	1405
605.4	1409
605.6	1421
605.8	1428
606.0	1431
606.2	1427
606.4	1422
606.6	1419
606.8	1431
607.0	1441
607.2	1454
607.4	1453
607.6	1457
607.8	1453
608.0	1462
608.2	1473
608.4	1477
608.6	1477
608.8	1487
609.0	1481
609.2	1478
609.4	1482
609.6	1489
609.8	1487
610.0	1498
610.2	1506
610.4	1500
610.6	1497
610.8	1492
611.0	1495
611.2	1516
611.4	1521
611.6	1520
611.8	1517
612.0	1512
612.2	1520
612.4	1526
612.6	1522
612.8	1523
613.0	1525
613.2	1528
613.4	1534
613.6	1534
613.8	1535
614.0	1530
614.2	1530
614.4	1530
614.6	1541
614.8	1540
615.0	1536
615.2	1533
615.4	1541
615.6	1546
615.8	1551
616.0	1541
616.2	1525
616.4	1523
616.6	1530
616.8	1540
617.0	1536
617.2	1539
617.4	1535
617.6	1538
617.8	1549
618.0	1560
618.2	1556
618.4	1556
618.6	1545
618.8	1541
619.0	1537
619.2	1541
619.4	1541
619.6	1539
619.8	1531
620.0	1537
620.2	1537
620.4	1546
620.6	1543
620.8	1538
621.0	1532
621.2	1530
621.4	1533
621.6	1537
621.8	1535
622.0	1529
622.2	1530
622.4	1529
622.6	1534
622.8	1538
623.0	1537
623.2	1538
623.4	1544
623.6	1540
623.8	1536
624.0	1533
624.2	1530
624.4	1529
624.6	1531
624.8	1528
625.0	1516
625.2	1512
625.4	1508
625.6	1506
625.8	1504
626.0	1511
626.2	1499
626.4	1496
626.6	1493
626.8	1497
627.0	1492
627.2	1491
627.4	1484
627.6	1487
627.8	1492
628.0	1493
628.2	1491
628.4	1491
628.6	1486
628.8	1488
629.0	1484
629.2	1484
629.4	1480
629.6	1475
629.8	1465
630.0	1461
630.2	1462
630.4	1467
630.6	1459
630.8	1455
631.0	1446
631.2	1443
631.4	1447
631.6	1443
631.8	1442
632.0	1443
632.2	1435
632.4	1435
632.6	1431
632.8	1422
633.0	1425
633.2	1418
633.4	1411
633.6	1408
633.8	1406
634.0	1406
634.2	1418
634.4	1415
634.6	1410
634.8	1397
635.0	1387
635.2	1375
635.4	1373
635.6	1368
635.8	1368
636.0	1360
636.2	1366
636.4	1365
636.6	1364
636.8	1367
637.0	1373
637.2	1366
637.4	1360
637.6	1343
637.8	1324
638.0	1320
638.2	1319
638.4	1323
638.6	1321
638.8	1321
639.0	1314
639.2	1310
639.4	1301
639.6	1299
639.8	1295
640.0	1301
640.2	1297
640.4	1291
640.6	1284
640.8	1285
641.0	1283
641.2	1288
641.4	1286
641.6	1278
641.8	1273
642.0	1266
642.2	1253
642.4	1247
642.6	1245
642.8	1239
643.0	1241
643.2	1243
643.4	1243
643.6	1242
643.8	1232
644.0	1224
644.2	1215
644.4	1211
644.6	1210
644.8	1212
645.0	1209
645.2	1208
645.4	1201
645.6	1196
645.8	1183
646.0	1185
646.2	1192
646.4	1189
646.6	1187
646.8	1183
647.0	1167
647.2	1162
647.4	1153
647.6	1141
647.8	1136
648.0	1133
648.2	1127
648.4	1130
648.6	1122
648.8	1122
649.0	1130
649.2	1124
649.4	1116
649.6	1116
649.8	1108
650.0	1104
650.2	1102
650.4	1091
650.6	1081
650.8	1077
651.0	1070
651.2	1072
651.4	1079
651.6	1080
651.8	1074
652.0	1071
652.2	1061
652.4	1053
652.6	1051
652.8	1037
653.0	1030
653.2	1026
653.4	1024
653.6	1016
653.8	1009
654.0	1009
654.2	1011
654.4	1009
654.6	1008
654.8	1001
655.0	996.0
655.2	989.5
655.4	985.3
655.6	979.3
655.8	973.8
656.0	967.1
656.2	967.7
656.4	958.2
656.6	962.5
656.8	952.7
657.0	949.3
657.2	939.1
657.4	939.4
657.6	930.3
657.8	926.9
658.0	921.1
658.2	918.3
658.4	918.1
658.6	922.9
658.8	909.6
659.0	898.6
659.2	895.6
659.4	888.0
659.6	886.6
659.8	884.9
660.0	876.3
660.2	877.2
660.4	880.9
660.6	888.1
660.8	881.2
661.0	876.9
661.2	868.7
661.4	860.2
661.6	856.7
661.8	858.0
662.0	846.2
662.2	848.6
662.4	848.2
662.6	837.4
662.8	827.6
663.0	818.1
663.2	809.2
663.4	809.1
663.6	818.2
663.8	818.0
664.0	814.8
664.2	808.4
664.4	799.0
664.6	790.2
664.8	789.9
665.0	782.3
665.2	777.5
665.4	770.2
665.6	766.3
665.8	769.8
666.0	776.5
666.2	775.1
666.4	772.0
666.6	759.2
666.8	756.1
667.0	749.3
667.2	748.5
667.4	750.1
667.6	754.2
667.8	746.9
668.0	751.2
668.2	746.0
668.4	743.1
668.6	738.6
668.8	737.7
669.0	724.2
669.2	721.6
669.4	722.4
669.6	718.1
669.8	711.9
670.0	705.0
670.2	698.1
670.4	698.6
670.6	696.5
670.8	690.4
671.0	681.9
671.2	673.9
671.4	672.8
671.6	671.9
671.8	665.2
672.0	658.5
672.2	648.8
672.4	646.4
672.6	645.9
672.8	645.9
673.0	643.9
673.2	641.3
673.4	636.0
673.6	636.8
673.8	635.4
674.0	631.5
674.2	626.9
674.4	628.5
674.6	629.5
674.8	629.6
675.0	625.4
675.2	620.1
675.4	610.1
675.6	609.1
675.8	607.1
676.0	603.1
676.2	597.7
676.4	597.4
676.6	592.5
676.8	597.1
677.0	595.8
677.2	594.3
677.4	585.2
677.6	581.8
677.8	573.1
678.0	576.7
678.2	570.8
678.4	565.8
678.6	559.3
678.8	557.6
679.0	554.3
679.2	559.2
679.4	558.4
679.6	557.2
679.8	557.1
680.0	550.8
680.2	545.5
680.4	535.6
680.6	528.8
680.8	525.7
681.0	527.3
681.2	519.7
681.4	516.1
681.6	510.9
681.8	509.7
682.0	510.9
682.2	508.6
682.4	500.7
682.6	493.7
682.8	493.8
683.0	491.2
683.2	488.5
683.4	488.9
683.6	487.6
683.8	485.5
684.0	485.9
684.2	480.5
684.4	478.5
684.6	476.5
684.8	473.9
685.0	472.4
685.2	470.5
685.4	467.6
685.6	465.3
685.8	457.7
686.0	457.4
686.2	455.6
686.4	454.5
686.6	452.9
686.8	447.9
687.0	442.8
687.2	444.6
687.4	441.9
687.6	441.5
687.8	436.1
688.0	430.3
688.2	421.8
688.4	422.0
688.6	423.6
688.8	428.4
689.0	427.3
689.2	423.7
689.4	417.0
689.6	407.6
689.8	404.7
690.0	405.3
690.2	406.3
690.4	410.3
690.6	411.9
690.8	403.3
691.0	397.6
691.2	389.7
691.4	378.0
691.6	380.5
691.8	381.5
692.0	383.7
692.2	384.5
692.4	383.7
692.6	377.3
692.8	380.2
693.0	376.9
693.2	376.9
693.4	371.6
693.6	369.7
693.8	366.9
694.0	363.7
694.2	362.0
694.4	358.2
694.6	357.1
694.8	357.6
695.0	355.3
695.2	352.3
695.4	352.6
695.6	342.6
695.8	339.6
696.0	339.1
696.2	339.8
696.4	342.0
696.6	343.1
696.8	342.9
697.0	343.6
697.2	344.5
697.4	340.1
697.6	333.6
697.8	327.3
698.0	325.9
698.2	327.1
698.4	323.7
698.6	321.9
698.8	319.9
699.0	321.2
699.2	324.5
699.4	323.3
699.6	317.9
699.8	314.6
700.0	311.6
700.2	314.5
700.4	316.5
700.6	316.4
700.8	315.7
701.0	310.3
701.2	306.0
701.4	302.6
701.6	295.7
701.8	294.9
702.0	292.6
702.2	292.0
702.4	295.5
702.6	295.7
702.8	295.3
703.0	297.9
703.2	292.4
703.4	288.9
703.6	288.0
703.8	281.7
704.0	280.2
704.2	281.2
704.4	277.3
704.6	276.1
704.8	274.8
705.0	272.9
705.2	274.2
705.4	276.1
705.6	275.5
705.8	272.0
706.0	271.2
706.2	268.4
706.4	268.5
706.6	267.8
706.8	266.8
707.0	261.2
707.2	262.5
707.4	259.6
707.6	259.2
707.8	258.2
708.0	257.1
708.2	250.7
708.4	247.9
708.6	247.6
708.8	246.5
709.0	245.0
709.2	242.2
709.4	240.5
709.6	237.9
709.8	238.3
710.0	239.6
710.2	240.4
710.4	242.7
710.6	245.6
710.8	242.1
711.0	235.3
711.2	231.4
711.4	229.8
711.6	232.2
711.8	231.2
712.0	228.0
712.2	226.3
712.4	221.2
712.6	223.0
712.8	226.0
713.0	224.3
713.2	224.0
713.4	225.4
713.6	217.7
713.8	212.8
714.0	208.0
714.2	205.2
714.4	207.2
714.6	210.4
714.8	212.0
715.0	209.7
715.2	208.4
715.4	206.6
715.6	204.6
715.8	203.6
716.0	200.5
716.2	196.8
716.4	194.6
716.6	194.8
716.8	198.5
717.0	199.0
717.2	195.7
717.4	194.2
717.6	191.3
717.8	189.6
718.0	188.3
718.2	183.3
718.4	182.1
718.6	184.8
718.8	187.7
719.0	188.3
719.2	186.0
719.4	182.0
719.6	183.9
719.8	184.9
720.0	186.8
720.2	184.6
720.4	180.5
720.6	175.5
720.8	172.6
721.0	170.8
721.2	169.9
721.4	167.8
721.6	166.8
721.8	166.1
722.0	165.2
722.2	166.4
722.4	163.8
722.6	162.5
722.8	163.7
723.0	164.3
723.2	164.7
723.4	164.6
723.6	162.0
723.8	159.3
724.0	162.0
724.2	159.6
724.4	155.4
724.6	153.3
724.8	151.3
725.0	149.4
725.2	153.7
725.4	153.1
725.6	150.0
725.8	150.6
726.0	149.5
726.2	147.0
726.4	147.0
726.6	144.7
726.8	140.8
727.0	140.0
727.2	140.8
727.4	140.4
727.6	142.2
727.8	142.1
728.0	143.2
728.2	140.3
728.4	141.1
728.6	139.4
728.8	135.8
729.0	135.2
729.2	134.7
729.4	131.0
729.6	131.8
729.8	131.0
730.0	127.6
730.2	128.6
730.4	127.9
730.6	127.1
730.8	126.5
731.0	126.8
731.2	124.4
731.4	123.5
731.6	124.1
731.8	124.0
732.0	123.7
732.2	123.2
732.4	120.1
732.6	116.8
732.8	113.7
733.0	111.8
733.2	112.6
733.4	113.2
733.6	114.0
733.8	113.5
734.0	111.8
734.2	111.7
734.4	109.9
734.6	110.3
734.8	110.1
735.0	107.3
735.2	105.5
735.4	108.3
735.6	109.5
735.8	109.4
736.0	107.4
736.2	103.7
736.4	101.4
736.6	102.0
736.8	103.3
737.0	102.9
737.2	99.73
737.4	101.0
737.6	100.3
737.8	98.49
738.0	98.22
738.2	100.4
738.4	97.97
738.6	100.3
738.8	98.63
739.0	96.02
739.2	95.06
739.4	95.82
739.6	93.88
739.8	93.09
740.0	91.95
740.2	88.27
740.4	87.22
740.6	88.03
740.8	86.80
741.0	86.16
741.2	87.87
741.4	85.34
741.6	84.68
741.8	84.90
742.0	84.86
742.2	84.82
742.4	86.22
742.6	85.10
742.8	85.43
743.0	85.05
743.2	85.54
743.4	85.38
743.6	85.27
743.8	84.48
744.0	84.30
744.2	83.44
744.4	80.55
744.6	78.59
744.8	76.31
745.0	74.10
745.2	72.44
745.4	74.34
745.6	74.19
745.8	76.65
746.0	77.28
746.2	76.25
746.4	73.89
746.6	75.63
746.8	75.48
747.0	75.16
747.2	75.87
747.4	74.33
747.6	73.84
747.8	73.97
748.0	72.52
748.2	70.40
748.4	69.43
748.6	68.24
748.8	67.89
749.0	66.76
749.2	65.44
749.4	65.62
749.6	64.66
749.8	65.58
750.0	64.49
750.2	64.70
750.4	65.17
750.6	66.98
750.8	66.81
751.0	66.85
751.2	64.91
751.4	64.00
751.6	61.64
751.8	62.12
752.0	60.99
752.2	60.48
752.4	59.92
752.6	61.93
752.8	59.90
753.0	59.99
753.2	57.43
753.4	56.48
753.6	56.99
753.8	59.21
754.0	59.69
754.2	60.11
754.4	57.63
754.6	57.49
754.8	56.74
755.0	55.29
755.2	55.95
755.4	55.34
755.6	56.06
755.8	58.64
756.0	57.97
756.2	56.63
756.4	55.30
756.6	53.30
756.8	52.80
757.0	53.20
757.2	52.11
757.4	51.37
757.6	50.87
757.8	49.79
758.0	50.54
758.2	51.42
758.4	50.79
758.6	52.15
758.8	51.62
759.0	49.10
759.2	48.86
759.4	47.10
759.6	45.36
759.8	45.96
760.0	47.00
760.2	45.84
760.4	46.14
760.6	45.03
760.8	44.95
761.0	44.46
761.2	46.71
761.4	46.14
761.6	45.96
761.8	45.24
762.0	45.31
762.2	44.33
762.4	44.73
762.6	44.11
762.8	42.99
763.0	41.22
763.2	40.93
763.4	39.63
763.6	40.86
763.8	42.33
764.0	42.28
764.2	41.02
764.4	41.10
764.6	39.59
764.8	40.44
765.0	41.61
765.2	42.58
765.4	41.52
765.6	40.20
765.8	38.05
766.0	37.56
766.2	37.33
766.4	38.40
766.6	37.80
766.8	37.35
767.0	36.56
767.2	37.54
767.4	38.56
767.6	39.51
767.8	39.33
768.0	38.53
768.2	36.69
768.4	36.01
768.6	35.81
768.8	35.16
769.0	34.66
769.2	33.99
769.4	33.61
769.6	34.68
769.8	35.36
770.0	34.56
770.2	35.10
770.4	34.00
770.6	33.68
770.8	33.42
771.0	32.76
771.2	32.92
771.4	33.52
771.6	33.80
771.8	33.48
772.0	32.31
772.2	30.44
772.4	31.08
772.6	30.81
772.8	31.50
773.0	32.31
773.2	31.92
773.4	30.52
773.6	29.89
773.8	29.39
774.0	29.33
774.2	29.78
774.4	30.76
774.6	30.42
774.8	31.34
775.0	30.99
775.2	30.26
775.4	29.14
775.6	29.45
775.8	28.86
776.0	29.24
776.2	27.96
776.4	26.91
776.6	26.52
776.8	26.67
777.0	26.56
777.2	26.68
777.4	27.18
777.6	27.97
777.8	28.99
778.0	28.86
778.2	26.98
778.4	25.62
778.6	24.98
778.8	25.44
779.0	25.95
779.2	25.78
779.4	24.33
779.6	24.20
779.8	24.70
780.0	26.07
780.2	26.01
780.4	25.57
780.6	24.13
780.8	24.24
781.0	23.98
781.2	24.82
781.4	24.47
781.6	24.42
781.8	24.70
782.0	25.25
782.2	25.51
782.4	25.11
782.6	24.58
782.8	24.25
783.0	23.59
783.2	23.73
783.4	24.41
783.6	24.82
783.8	24.79
784.0	24.95
784.2	24.44
784.4	24.38
784.6	23.42
784.8	22.39
785.0	22.29
785.2	21.61
785.4	21.72
785.6	22.83
785.8	23.52
786.0	22.78
786.2	23.65
786.4	22.56
786.6	22.41
786.8	22.99
787.0	23.91
787.2	22.35
787.4	21.08
787.6	20.81
787.8	20.37
788.0	20.25
788.2	20.76
788.4	20.57
788.6	20.37
788.8	21.72
789.0	21.83
789.2	21.48
789.4	21.01
789.6	20.09
789.8	18.60
790.0	18.76
790.2	19.76
790.4	20.74
790.6	21.53
790.8	20.24
791.0	19.65
791.2	19.70
791.4	20.12
791.6	20.98
791.8	20.42
792.0	19.01
792.2	18.57
792.4	18.15
792.6	17.66
792.8	17.42
793.0	17.76
793.2	18.66
793.4	19.69
793.6	20.63
793.8	20.74
794.0	20.48
794.2	20.42
794.4	20.64
794.6	20.70
794.8	20.04
795.0	19.22
795.2	19.03
795.4	19.45
795.6	19.72
795.8	19.82
796.0	19.27
796.2	18.02
796.4	17.44
796.6	18.00
796.8	17.13
797.0	16.83
797.2	16.58
797.4	16.85
797.6	18.60
797.8	19.78
798.0	18.76
798.2	17.70
798.4	16.35
798.6	15.94
798.8	16.65
799.0	17.51
799.2	17.22
799.4	17.56
799.6	17.63
799.8	17.63
800.0	17.59

