Sample:	'20211010A(EM)
File name:	G-Ni 3 300.FDS
Run date:	'15:41:42, 06/19/2023
Operator:	Administrator
Comment:	'

Instrument
Model:	F-4700 FL Spectrophotometer
Serial number:	2019-001
ROM Version:	5J24010 00

Instrument parameters
Measurement type:	Wavelength scan
Scan mode:	Emission
Data mode:	Fluorescence
EX WL:	400.0 nm
EM  Start WL:	420.0 nm
EM  End WL:	800.0 nm
Scan speed:	1200 nm/min
Delay:	0.0 s
EX Slit:	10.0 nm
EM Slit:	10.0 nm
PMT Voltage:	500 V
Response:	0.002 s
Corrected spectra:	Off
Shutter control:	On

Processing performed
Savitsky-Golay smoothed
Smoothing order:	3
Number of points:	7
Number of times:	1

Peak integration
Integration method:	Rectangular
Sensitivity:	1
Threshold:	1.000

Peaks
No.	Start(nm)	Apex(nm)	End(nm)	Height(Data)	Valley(nm)	Valley(Data)
1	420.0	545.4	546.6	1556	546.6	1546
2	546.6	547.4	547.8	1563	547.8	1554
3	547.8	550.4	552.6	1568	552.6	1555
4	552.6	553.2	701.2	1566	701.2	39.67
5	701.2	702.6	709.0	40.78	709.0	32.32
6	709.0	709.2	740.0	33.53	740.0	10.76
7	740.0	740.6	745.4	11.85	745.4	8.788
8	745.4	747.0	783.2	9.896	783.2	2.859

Data points
nm	Data
420.0	0.757
420.2	1.056
420.4	1.148
420.6	1.112
420.8	1.106
421.0	0.944
421.2	0.903
421.4	0.784
421.6	0.777
421.8	0.779
422.0	0.873
422.2	1.016
422.4	1.114
422.6	1.088
422.8	1.046
423.0	1.011
423.2	1.002
423.4	1.066
423.6	1.026
423.8	0.997
424.0	0.931
424.2	0.822
424.4	0.862
424.6	0.745
424.8	0.632
425.0	0.766
425.2	0.789
425.4	0.794
425.6	0.889
425.8	0.807
426.0	0.775
426.2	0.895
426.4	0.953
426.6	0.907
426.8	1.034
427.0	1.129
427.2	1.131
427.4	1.043
427.6	0.966
427.8	0.835
428.0	0.911
428.2	1.012
428.4	1.003
428.6	1.002
428.8	1.016
429.0	1.007
429.2	1.024
429.4	0.945
429.6	0.848
429.8	0.780
430.0	0.909
430.2	0.953
430.4	0.958
430.6	0.936
430.8	0.806
431.0	0.857
431.2	1.152
431.4	1.146
431.6	1.118
431.8	1.059
432.0	0.918
432.2	0.941
432.4	1.034
432.6	0.964
432.8	0.988
433.0	0.858
433.2	1.004
433.4	1.089
433.6	1.132
433.8	1.065
434.0	1.009
434.2	0.771
434.4	0.926
434.6	1.020
434.8	0.990
435.0	0.859
435.2	0.788
435.4	0.810
435.6	1.095
435.8	1.183
436.0	1.073
436.2	0.962
436.4	0.903
436.6	0.882
436.8	0.976
437.0	0.870
437.2	0.716
437.4	0.770
437.6	0.861
437.8	0.860
438.0	0.984
438.2	0.910
438.4	0.914
438.6	0.896
438.8	0.993
439.0	1.012
439.2	1.124
439.4	1.002
439.6	1.003
439.8	0.888
440.0	0.939
440.2	0.824
440.4	0.879
440.6	0.951
440.8	0.874
441.0	0.900
441.2	0.893
441.4	0.853
441.6	0.998
441.8	1.110
442.0	0.952
442.2	0.990
442.4	0.926
442.6	1.076
442.8	1.118
443.0	1.179
443.2	1.020
443.4	0.984
443.6	0.913
443.8	0.956
444.0	0.866
444.2	1.124
444.4	1.176
444.6	1.185
444.8	1.203
445.0	1.079
445.2	0.962
445.4	0.975
445.6	0.885
445.8	0.757
446.0	0.832
446.2	0.988
446.4	1.209
446.6	1.352
446.8	1.233
447.0	1.100
447.2	0.986
447.4	0.899
447.6	0.885
447.8	1.020
448.0	1.013
448.2	1.107
448.4	1.229
448.6	1.159
448.8	1.213
449.0	1.345
449.2	1.352
449.4	1.274
449.6	1.315
449.8	1.133
450.0	1.161
450.2	1.100
450.4	1.126
450.6	1.085
450.8	1.087
451.0	1.118
451.2	1.300
451.4	1.204
451.6	1.378
451.8	1.407
452.0	1.276
452.2	1.264
452.4	1.251
452.6	1.161
452.8	1.360
453.0	1.469
453.2	1.443
453.4	1.581
453.6	1.622
453.8	1.434
454.0	1.455
454.2	1.386
454.4	1.199
454.6	1.295
454.8	1.219
455.0	1.148
455.2	1.379
455.4	1.466
455.6	1.494
455.8	1.592
456.0	1.445
456.2	1.475
456.4	1.514
456.6	1.464
456.8	1.529
457.0	1.670
457.2	1.586
457.4	1.665
457.6	1.452
457.8	1.538
458.0	1.616
458.2	1.808
458.4	1.747
458.6	1.776
458.8	1.569
459.0	1.668
459.2	1.599
459.4	1.792
459.6	1.927
459.8	2.111
460.0	2.065
460.2	2.015
460.4	1.855
460.6	1.929
460.8	2.047
461.0	2.178
461.2	1.989
461.4	1.824
461.6	1.773
461.8	1.921
462.0	2.094
462.2	2.258
462.4	2.262
462.6	2.293
462.8	2.295
463.0	2.305
463.2	2.381
463.4	2.444
463.6	2.420
463.8	2.629
464.0	2.576
464.2	2.602
464.4	2.587
464.6	2.530
464.8	2.522
465.0	2.709
465.2	2.797
465.4	2.970
465.6	2.886
465.8	2.861
466.0	2.885
466.2	2.972
466.4	3.026
466.6	3.179
466.8	3.177
467.0	3.373
467.2	3.297
467.4	3.467
467.6	3.397
467.8	3.484
468.0	3.538
468.2	3.820
468.4	3.795
468.6	3.916
468.8	4.001
469.0	4.011
469.2	4.305
469.4	4.503
469.6	4.427
469.8	4.530
470.0	4.663
470.2	4.665
470.4	4.967
470.6	4.981
470.8	5.050
471.0	5.457
471.2	5.924
471.4	6.220
471.6	6.694
471.8	6.646
472.0	6.359
472.2	6.362
472.4	6.381
472.6	6.411
472.8	7.154
473.0	7.201
473.2	7.370
473.4	7.810
473.6	8.168
473.8	8.398
474.0	8.719
474.2	8.460
474.4	8.451
474.6	8.541
474.8	9.048
475.0	9.441
475.2	9.602
475.4	9.887
475.6	10.04
475.8	10.22
476.0	10.72
476.2	11.23
476.4	11.58
476.6	11.82
476.8	12.11
477.0	12.33
477.2	12.79
477.4	13.29
477.6	13.71
477.8	14.18
478.0	14.70
478.2	15.08
478.4	15.83
478.6	16.49
478.8	17.09
479.0	17.68
479.2	18.10
479.4	18.29
479.6	18.77
479.8	18.98
480.0	19.20
480.2	19.54
480.4	20.37
480.6	20.97
480.8	21.93
481.0	22.58
481.2	23.41
481.4	24.20
481.6	25.54
481.8	26.13
482.0	27.25
482.2	27.78
482.4	28.26
482.6	29.05
482.8	30.24
483.0	30.94
483.2	31.52
483.4	31.56
483.6	31.78
483.8	32.80
484.0	34.43
484.2	35.52
484.4	36.25
484.6	37.69
484.8	39.09
485.0	41.52
485.2	43.73
485.4	44.23
485.6	44.81
485.8	45.37
486.0	46.45
486.2	48.04
486.4	49.54
486.6	50.81
486.8	51.75
487.0	52.47
487.2	54.27
487.4	55.71
487.6	58.36
487.8	60.48
488.0	61.16
488.2	62.84
488.4	64.29
488.6	65.84
488.8	67.34
489.0	68.34
489.2	69.08
489.4	71.36
489.6	73.54
489.8	76.65
490.0	78.96
490.2	82.24
490.4	84.71
490.6	87.47
490.8	89.06
491.0	89.54
491.2	90.22
491.4	91.87
491.6	94.53
491.8	97.93
492.0	101.2
492.2	103.6
492.4	105.8
492.6	107.3
492.8	110.6
493.0	113.5
493.2	116.9
493.4	119.5
493.6	121.8
493.8	123.1
494.0	126.3
494.2	130.4
494.4	134.4
494.6	138.0
494.8	141.7
495.0	145.0
495.2	148.9
495.4	153.0
495.6	155.8
495.8	158.1
496.0	160.9
496.2	165.4
496.4	168.5
496.6	171.3
496.8	174.4
497.0	176.7
497.2	179.3
497.4	184.4
497.6	187.8
497.8	192.7
498.0	198.3
498.2	202.0
498.4	205.5
498.6	209.2
498.8	212.3
499.0	217.9
499.2	224.0
499.4	229.6
499.6	236.4
499.8	241.1
500.0	245.7
500.2	249.6
500.4	253.2
500.6	256.0
500.8	260.9
501.0	266.6
501.2	272.2
501.4	278.3
501.6	281.8
501.8	285.0
502.0	288.3
502.2	292.8
502.4	298.0
502.6	304.1
502.8	310.1
503.0	316.6
503.2	320.6
503.4	326.1
503.6	334.3
503.8	341.7
504.0	347.4
504.2	353.4
504.4	357.0
504.6	363.0
504.8	372.1
505.0	381.5
505.2	386.7
505.4	392.1
505.6	396.2
505.8	402.3
506.0	408.5
506.2	416.7
506.4	422.8
506.6	427.2
506.8	431.6
507.0	437.8
507.2	445.7
507.4	453.3
507.6	460.0
507.8	465.9
508.0	471.8
508.2	478.4
508.4	486.9
508.6	491.9
508.8	497.8
509.0	505.8
509.2	514.0
509.4	523.1
509.6	531.8
509.8	536.0
510.0	540.3
510.2	544.2
510.4	550.9
510.6	561.3
510.8	571.2
511.0	581.0
511.2	589.9
511.4	595.8
511.6	602.8
511.8	611.1
512.0	617.1
512.2	625.1
512.4	631.2
512.6	639.2
512.8	646.8
513.0	653.2
513.2	660.0
513.4	664.9
513.6	669.2
513.8	677.7
514.0	687.9
514.2	697.6
514.4	710.1
514.6	718.6
514.8	725.9
515.0	733.0
515.2	737.5
515.4	743.7
515.6	750.0
515.8	758.1
516.0	766.5
516.2	775.1
516.4	781.3
516.6	793.2
516.8	801.8
517.0	810.4
517.2	816.8
517.4	820.6
517.6	826.3
517.8	836.6
518.0	846.0
518.2	855.1
518.4	863.8
518.6	870.3
518.8	878.1
519.0	887.0
519.2	894.1
519.4	901.2
519.6	907.0
519.8	914.1
520.0	922.4
520.2	933.6
520.4	941.5
520.6	945.0
520.8	951.1
521.0	961.9
521.2	971.7
521.4	982.3
521.6	990.5
521.8	992.0
522.0	1000
522.2	1008
522.4	1016
522.6	1023
522.8	1031
523.0	1038
523.2	1047
523.4	1053
523.6	1062
523.8	1070
524.0	1078
524.2	1085
524.4	1093
524.6	1097
524.8	1104
525.0	1112
525.2	1119
525.4	1123
525.6	1128
525.8	1135
526.0	1144
526.2	1151
526.4	1160
526.6	1164
526.8	1170
527.0	1176
527.2	1181
527.4	1189
527.6	1196
527.8	1202
528.0	1210
528.2	1215
528.4	1219
528.6	1225
528.8	1226
529.0	1230
529.2	1239
529.4	1247
529.6	1258
529.8	1265
530.0	1270
530.2	1276
530.4	1286
530.6	1293
530.8	1301
531.0	1304
531.2	1306
531.4	1310
531.6	1318
531.8	1321
532.0	1327
532.2	1335
532.4	1333
532.6	1342
532.8	1347
533.0	1351
533.2	1354
533.4	1363
533.6	1366
533.8	1372
534.0	1379
534.2	1386
534.4	1392
534.6	1401
534.8	1408
535.0	1408
535.2	1409
535.4	1407
535.6	1409
535.8	1414
536.0	1420
536.2	1430
536.4	1440
536.6	1444
536.8	1446
537.0	1447
537.2	1447
537.4	1449
537.6	1452
537.8	1455
538.0	1455
538.2	1463
538.4	1472
538.6	1478
538.8	1478
539.0	1481
539.2	1478
539.4	1480
539.6	1480
539.8	1484
540.0	1483
540.2	1490
540.4	1493
540.6	1495
540.8	1493
541.0	1502
541.2	1505
541.4	1516
541.6	1520
541.8	1521
542.0	1517
542.2	1518
542.4	1516
542.6	1521
542.8	1524
543.0	1524
543.2	1529
543.4	1535
543.6	1539
543.8	1549
544.0	1550
544.2	1548
544.4	1546
544.6	1545
544.8	1543
545.0	1548
545.2	1552
545.4	1556
545.6	1556
545.8	1554
546.0	1553
546.2	1548
546.4	1547
546.6	1546
546.8	1553
547.0	1557
547.2	1561
547.4	1563
547.6	1559
547.8	1554
548.0	1555
548.2	1557
548.4	1558
548.6	1561
548.8	1562
549.0	1565
549.2	1563
549.4	1560
549.6	1558
549.8	1557
550.0	1558
550.2	1566
550.4	1568
550.6	1567
550.8	1567
551.0	1566
551.2	1560
551.4	1558
551.6	1557
551.8	1558
552.0	1560
552.2	1557
552.4	1557
552.6	1555
552.8	1557
553.0	1565
553.2	1566
553.4	1561
553.6	1559
553.8	1554
554.0	1553
554.2	1553
554.4	1547
554.6	1544
554.8	1545
555.0	1545
555.2	1547
555.4	1545
555.6	1541
555.8	1540
556.0	1543
556.2	1543
556.4	1547
556.6	1546
556.8	1537
557.0	1529
557.2	1526
557.4	1527
557.6	1531
557.8	1530
558.0	1528
558.2	1526
558.4	1525
558.6	1527
558.8	1516
559.0	1507
559.2	1505
559.4	1505
559.6	1507
559.8	1510
560.0	1505
560.2	1499
560.4	1495
560.6	1493
560.8	1493
561.0	1495
561.2	1495
561.4	1495
561.6	1492
561.8	1486
562.0	1477
562.2	1473
562.4	1470
562.6	1471
562.8	1475
563.0	1473
563.2	1472
563.4	1472
563.6	1465
563.8	1457
564.0	1454
564.2	1450
564.4	1450
564.6	1449
564.8	1445
565.0	1442
565.2	1440
565.4	1436
565.6	1432
565.8	1429
566.0	1426
566.2	1425
566.4	1424
566.6	1421
566.8	1420
567.0	1415
567.2	1409
567.4	1406
567.6	1402
567.8	1397
568.0	1394
568.2	1390
568.4	1390
568.6	1389
568.8	1388
569.0	1382
569.2	1377
569.4	1374
569.6	1373
569.8	1369
570.0	1366
570.2	1364
570.4	1360
570.6	1355
570.8	1351
571.0	1343
571.2	1337
571.4	1338
571.6	1335
571.8	1330
572.0	1328
572.2	1324
572.4	1322
572.6	1320
572.8	1316
573.0	1312
573.2	1310
573.4	1303
573.6	1297
573.8	1291
574.0	1289
574.2	1289
574.4	1290
574.6	1285
574.8	1279
575.0	1274
575.2	1269
575.4	1265
575.6	1263
575.8	1257
576.0	1255
576.2	1253
576.4	1250
576.6	1246
576.8	1242
577.0	1238
577.2	1236
577.4	1235
577.6	1233
577.8	1227
578.0	1217
578.2	1209
578.4	1206
578.6	1207
578.8	1209
579.0	1207
579.2	1199
579.4	1191
579.6	1188
579.8	1185
580.0	1184
580.2	1180
580.4	1177
580.6	1176
580.8	1173
581.0	1166
581.2	1158
581.4	1152
581.6	1152
581.8	1151
582.0	1152
582.2	1147
582.4	1143
582.6	1136
582.8	1130
583.0	1125
583.2	1125
583.4	1123
583.6	1121
583.8	1115
584.0	1110
584.2	1105
584.4	1102
584.6	1100
584.8	1095
585.0	1087
585.2	1081
585.4	1076
585.6	1075
585.8	1075
586.0	1071
586.2	1064
586.4	1059
586.6	1057
586.8	1056
587.0	1056
587.2	1051
587.4	1046
587.6	1042
587.8	1040
588.0	1038
588.2	1039
588.4	1033
588.6	1028
588.8	1022
589.0	1016
589.2	1007
589.4	1004
589.6	999.8
589.8	999.2
590.0	999.3
590.2	996.0
590.4	989.3
590.6	985.2
590.8	984.3
591.0	981.8
591.2	977.5
591.4	973.4
591.6	969.1
591.8	964.0
592.0	960.3
592.2	956.7
592.4	954.2
592.6	953.2
592.8	950.3
593.0	946.5
593.2	941.2
593.4	937.6
593.6	934.7
593.8	931.8
594.0	927.7
594.2	923.5
594.4	920.3
594.6	914.2
594.8	908.5
595.0	906.4
595.2	901.1
595.4	895.6
595.6	896.3
595.8	890.2
596.0	886.8
596.2	882.2
596.4	878.4
596.6	873.0
596.8	874.3
597.0	870.6
597.2	867.7
597.4	861.5
597.6	860.3
597.8	855.9
598.0	854.8
598.2	849.3
598.4	846.2
598.6	842.7
598.8	839.0
599.0	836.6
599.2	833.2
599.4	827.4
599.6	824.4
599.8	825.6
600.0	818.3
600.2	816.8
600.4	812.2
600.6	808.3
600.8	804.6
601.0	807.0
601.2	802.1
601.4	802.1
601.6	801.6
601.8	797.8
602.0	792.7
602.2	786.8
602.4	776.2
602.6	770.9
602.8	768.5
603.0	767.2
603.2	766.9
603.4	764.9
603.6	758.1
603.8	753.7
604.0	750.5
604.2	748.5
604.4	747.2
604.6	747.6
604.8	744.4
605.0	740.0
605.2	732.1
605.4	721.8
605.6	716.6
605.8	715.9
606.0	715.7
606.2	713.7
606.4	710.8
606.6	705.2
606.8	703.5
607.0	702.0
607.2	700.1
607.4	694.7
607.6	693.7
607.8	690.5
608.0	688.4
608.2	685.1
608.4	679.7
608.6	674.0
608.8	671.7
609.0	670.3
609.2	668.1
609.4	666.5
609.6	661.4
609.8	655.9
610.0	651.1
610.2	649.6
610.4	647.4
610.6	645.8
610.8	641.5
611.0	639.5
611.2	636.2
611.4	633.7
611.6	630.5
611.8	625.5
612.0	619.8
612.2	617.3
612.4	612.8
612.6	610.9
612.8	609.9
613.0	608.3
613.2	605.1
613.4	598.4
613.6	593.2
613.8	591.1
614.0	591.1
614.2	592.6
614.4	590.9
614.6	587.0
614.8	582.7
615.0	575.4
615.2	573.1
615.4	569.9
615.6	566.3
615.8	565.8
616.0	562.5
616.2	559.3
616.4	558.6
616.6	558.1
616.8	554.9
617.0	553.6
617.2	548.5
617.4	543.8
617.6	538.2
617.8	536.9
618.0	533.2
618.2	531.3
618.4	526.5
618.6	523.0
618.8	521.6
619.0	521.0
619.2	517.4
619.4	515.0
619.6	511.2
619.8	509.8
620.0	509.6
620.2	508.0
620.4	504.3
620.6	503.2
620.8	500.8
621.0	498.7
621.2	496.3
621.4	493.5
621.6	492.2
621.8	490.5
622.0	485.0
622.2	481.2
622.4	476.6
622.6	474.3
622.8	475.3
623.0	471.7
623.2	466.3
623.4	465.2
623.6	462.5
623.8	461.9
624.0	459.8
624.2	454.5
624.4	451.4
624.6	452.3
624.8	449.0
625.0	447.2
625.2	444.0
625.4	441.7
625.6	441.0
625.8	440.0
626.0	434.6
626.2	431.1
626.4	428.1
626.6	424.3
626.8	423.0
627.0	418.6
627.2	415.7
627.4	414.7
627.6	414.4
627.8	413.5
628.0	411.1
628.2	406.6
628.4	403.8
628.6	402.2
628.8	400.4
629.0	398.9
629.2	397.2
629.4	394.8
629.6	389.7
629.8	385.9
630.0	382.3
630.2	380.6
630.4	381.2
630.6	380.3
630.8	375.8
631.0	373.2
631.2	371.3
631.4	369.0
631.6	368.0
631.8	367.5
632.0	366.0
632.2	364.8
632.4	364.0
632.6	363.1
632.8	361.1
633.0	356.9
633.2	353.8
633.4	351.9
633.6	350.3
633.8	348.9
634.0	345.8
634.2	341.8
634.4	340.7
634.6	339.6
634.8	336.3
635.0	332.9
635.2	329.4
635.4	327.5
635.6	327.6
635.8	327.6
636.0	326.6
636.2	325.0
636.4	322.9
636.6	321.2
636.8	319.6
637.0	318.4
637.2	315.2
637.4	312.1
637.6	309.4
637.8	307.2
638.0	306.3
638.2	304.2
638.4	301.5
638.6	299.7
638.8	298.9
639.0	297.0
639.2	298.0
639.4	295.0
639.6	292.5
639.8	289.6
640.0	289.5
640.2	287.5
640.4	288.5
640.6	286.3
640.8	283.8
641.0	279.2
641.2	277.4
641.4	274.1
641.6	272.1
641.8	270.5
642.0	269.6
642.2	267.5
642.4	267.5
642.6	268.6
642.8	268.9
643.0	268.8
643.2	266.0
643.4	262.2
643.6	258.7
643.8	257.5
644.0	258.3
644.2	257.5
644.4	255.4
644.6	253.5
644.8	250.8
645.0	247.9
645.2	246.4
645.4	243.4
645.6	242.9
645.8	241.5
646.0	241.4
646.2	241.0
646.4	240.5
646.6	240.6
646.8	238.6
647.0	235.7
647.2	234.2
647.4	231.5
647.6	230.7
647.8	231.5
648.0	229.8
648.2	227.7
648.4	223.9
648.6	221.7
648.8	220.5
649.0	221.0
649.2	220.1
649.4	217.5
649.6	214.7
649.8	214.3
650.0	213.4
650.2	213.8
650.4	214.1
650.6	213.8
650.8	212.4
651.0	209.5
651.2	205.1
651.4	202.8
651.6	201.9
651.8	201.9
652.0	202.9
652.2	202.4
652.4	198.4
652.6	196.6
652.8	194.7
653.0	194.0
653.2	194.5
653.4	194.3
653.6	192.4
653.8	190.8
654.0	190.6
654.2	189.5
654.4	187.7
654.6	186.9
654.8	186.1
655.0	183.9
655.2	183.0
655.4	181.7
655.6	180.3
655.8	180.3
656.0	179.3
656.2	176.9
656.4	174.3
656.6	173.0
656.8	172.4
657.0	172.0
657.2	172.0
657.4	171.3
657.6	168.7
657.8	166.5
658.0	165.3
658.2	164.2
658.4	164.4
658.6	163.8
658.8	162.8
659.0	160.8
659.2	159.9
659.4	158.2
659.6	157.5
659.8	155.0
660.0	154.5
660.2	152.4
660.4	152.1
660.6	151.3
660.8	152.1
661.0	151.3
661.2	151.4
661.4	149.0
661.6	146.9
661.8	145.2
662.0	143.4
662.2	142.0
662.4	143.3
662.6	143.6
662.8	144.5
663.0	144.4
663.2	142.7
663.4	140.9
663.6	139.5
663.8	138.2
664.0	137.8
664.2	137.1
664.4	136.3
664.6	135.4
664.8	133.7
665.0	132.4
665.2	131.8
665.4	131.4
665.6	130.4
665.8	129.6
666.0	129.6
666.2	129.2
666.4	129.2
666.6	128.0
666.8	125.8
667.0	123.8
667.2	121.5
667.4	121.2
667.6	121.1
667.8	120.5
668.0	120.2
668.2	120.2
668.4	119.3
668.6	119.7
668.8	119.6
669.0	118.8
669.2	117.3
669.4	114.6
669.6	113.4
669.8	112.7
670.0	112.9
670.2	113.1
670.4	112.7
670.6	110.7
670.8	110.1
671.0	109.9
671.2	109.0
671.4	109.0
671.6	107.0
671.8	105.4
672.0	104.1
672.2	104.3
672.4	104.6
672.6	104.8
672.8	103.1
673.0	102.5
673.2	102.3
673.4	102.0
673.6	101.2
673.8	99.35
674.0	97.72
674.2	96.71
674.4	96.73
674.6	95.72
674.8	94.83
675.0	93.96
675.2	92.22
675.4	91.86
675.6	92.46
675.8	93.13
676.0	94.05
676.2	93.69
676.4	91.73
676.6	90.99
676.8	90.45
677.0	89.73
677.2	89.98
677.4	89.27
677.6	87.75
677.8	87.13
678.0	85.58
678.2	84.23
678.4	83.71
678.6	83.11
678.8	83.54
679.0	84.20
679.2	84.32
679.4	83.56
679.6	81.82
679.8	79.87
680.0	80.48
680.2	80.25
680.4	80.36
680.6	79.73
680.8	78.84
681.0	77.69
681.2	77.34
681.4	77.17
681.6	76.79
681.8	75.95
682.0	76.11
682.2	75.06
682.4	75.38
682.6	75.74
682.8	74.28
683.0	72.95
683.2	72.26
683.4	70.73
683.6	70.98
683.8	70.53
684.0	69.22
684.2	68.42
684.4	68.82
684.6	68.35
684.8	68.46
685.0	68.41
685.2	68.84
685.4	68.53
685.6	69.11
685.8	67.77
686.0	66.16
686.2	65.12
686.4	64.10
686.6	63.89
686.8	63.57
687.0	63.18
687.2	63.26
687.4	62.67
687.6	61.82
687.8	61.96
688.0	61.70
688.2	61.20
688.4	61.14
688.6	60.21
688.8	59.32
689.0	59.06
689.2	59.41
689.4	59.34
689.6	58.85
689.8	58.32
690.0	56.94
690.2	56.62
690.4	56.76
690.6	56.83
690.8	57.00
691.0	56.21
691.2	54.99
691.4	54.40
691.6	53.49
691.8	53.21
692.0	54.14
692.2	53.75
692.4	53.16
692.6	53.17
692.8	52.89
693.0	53.14
693.2	52.78
693.4	52.81
693.6	53.09
693.8	52.78
694.0	52.08
694.2	51.15
694.4	49.46
694.6	49.03
694.8	49.46
695.0	49.11
695.2	49.02
695.4	48.43
695.6	47.85
695.8	47.04
696.0	47.26
696.2	47.02
696.4	47.19
696.6	46.43
696.8	45.98
697.0	45.47
697.2	45.70
697.4	46.08
697.6	46.65
697.8	45.74
698.0	45.03
698.2	44.24
698.4	43.69
698.6	44.19
698.8	44.71
699.0	43.69
699.2	42.87
699.4	42.39
699.6	42.40
699.8	43.02
700.0	43.53
700.2	42.50
700.4	41.95
700.6	40.76
700.8	40.34
701.0	40.21
701.2	39.67
701.4	40.05
701.6	40.12
701.8	40.02
702.0	39.85
702.2	40.26
702.4	40.34
702.6	40.78
702.8	39.94
703.0	39.86
703.2	38.54
703.4	38.36
703.6	38.18
703.8	37.95
704.0	38.01
704.2	38.27
704.4	38.20
704.6	37.99
704.8	37.44
705.0	37.07
705.2	36.23
705.4	35.84
705.6	35.53
705.8	35.75
706.0	35.63
706.2	35.45
706.4	34.89
706.6	35.02
706.8	34.67
707.0	35.27
707.2	34.77
707.4	34.77
707.6	33.92
707.8	33.21
708.0	33.15
708.2	32.97
708.4	32.54
708.6	32.44
708.8	32.44
709.0	32.32
709.2	33.53
709.4	33.10
709.6	33.17
709.8	32.20
710.0	31.63
710.2	30.78
710.4	30.79
710.6	30.35
710.8	31.02
711.0	31.23
711.2	31.33
711.4	30.75
711.6	30.52
711.8	30.20
712.0	30.41
712.2	30.55
712.4	30.65
712.6	29.97
712.8	29.50
713.0	28.91
713.2	29.03
713.4	28.86
713.6	28.40
713.8	27.94
714.0	27.59
714.2	27.48
714.4	27.56
714.6	27.56
714.8	27.20
715.0	27.65
715.2	27.73
715.4	27.77
715.6	27.14
715.8	26.41
716.0	25.28
716.2	25.35
716.4	25.37
716.6	25.17
716.8	25.77
717.0	25.95
717.2	25.75
717.4	25.69
717.6	25.15
717.8	24.34
718.0	24.70
718.2	24.18
718.4	24.53
718.6	23.90
718.8	23.59
719.0	23.42
719.2	23.60
719.4	23.53
719.6	23.41
719.8	22.36
720.0	22.27
720.2	22.46
720.4	22.51
720.6	22.80
720.8	22.04
721.0	21.27
721.2	20.72
721.4	20.86
721.6	20.81
721.8	21.19
722.0	21.62
722.2	21.65
722.4	21.42
722.6	21.04
722.8	20.76
723.0	20.30
723.2	19.83
723.4	19.51
723.6	20.04
723.8	19.52
724.0	19.85
724.2	20.08
724.4	19.68
724.6	19.78
724.8	20.01
725.0	19.06
725.2	18.53
725.4	18.48
725.6	18.22
725.8	18.09
726.0	18.52
726.2	18.58
726.4	18.43
726.6	18.71
726.8	18.74
727.0	18.23
727.2	18.03
727.4	17.22
727.6	16.65
727.8	16.75
728.0	17.12
728.2	17.37
728.4	17.19
728.6	16.91
728.8	16.14
729.0	16.23
729.2	16.35
729.4	16.14
729.6	15.93
729.8	16.39
730.0	16.17
730.2	16.55
730.4	16.14
730.6	15.34
730.8	15.23
731.0	15.20
731.2	15.15
731.4	15.40
731.6	15.33
731.8	15.39
732.0	15.18
732.2	14.69
732.4	14.54
732.6	14.58
732.8	14.61
733.0	14.77
733.2	14.43
733.4	14.25
733.6	14.11
733.8	13.64
734.0	13.36
734.2	13.34
734.4	13.74
734.6	13.92
734.8	13.89
735.0	13.87
735.2	13.48
735.4	13.09
735.6	12.87
735.8	12.61
736.0	12.14
736.2	12.63
736.4	12.92
736.6	12.94
736.8	12.67
737.0	12.76
737.2	12.51
737.4	12.93
737.6	13.12
737.8	12.75
738.0	12.14
738.2	12.14
738.4	12.04
738.6	11.88
738.8	11.55
739.0	11.40
739.2	11.35
739.4	11.57
739.6	11.39
739.8	11.08
740.0	10.76
740.2	11.19
740.4	11.70
740.6	11.85
740.8	11.64
741.0	11.47
741.2	10.92
741.4	10.68
741.6	10.55
741.8	10.27
742.0	10.24
742.2	10.31
742.4	9.975
742.6	9.931
742.8	9.799
743.0	9.916
743.2	9.830
743.4	9.724
743.6	9.526
743.8	9.771
744.0	9.766
744.2	9.826
744.4	9.771
744.6	9.427
744.8	9.233
745.0	9.169
745.2	9.059
745.4	8.788
745.6	8.896
745.8	9.047
746.0	9.153
746.2	9.157
746.4	9.312
746.6	9.353
746.8	9.456
747.0	9.896
747.2	9.533
747.4	9.001
747.6	8.965
747.8	8.760
748.0	8.405
748.2	8.237
748.4	7.930
748.6	7.702
748.8	7.901
749.0	8.259
749.2	8.188
749.4	8.332
749.6	8.249
749.8	8.009
750.0	7.734
750.2	7.846
750.4	7.656
750.6	7.761
750.8	7.632
751.0	7.606
751.2	7.698
751.4	7.731
751.6	7.338
751.8	7.181
752.0	7.120
752.2	7.132
752.4	7.486
752.6	7.659
752.8	7.495
753.0	7.559
753.2	7.367
753.4	7.121
753.6	7.094
753.8	7.137
754.0	7.092
754.2	7.317
754.4	7.329
754.6	7.291
754.8	7.169
755.0	6.952
755.2	6.699
755.4	6.704
755.6	6.779
755.8	6.849
756.0	6.757
756.2	6.859
756.4	6.693
756.6	6.745
756.8	6.656
757.0	6.509
757.2	6.516
757.4	6.841
757.6	6.559
757.8	6.354
758.0	6.071
758.2	5.731
758.4	5.820
758.6	6.243
758.8	6.468
759.0	6.238
759.2	6.186
759.4	5.991
759.6	5.883
759.8	6.074
760.0	6.221
760.2	5.956
760.4	5.987
760.6	5.835
760.8	5.467
761.0	5.283
761.2	5.052
761.4	5.087
761.6	5.377
761.8	5.679
762.0	5.765
762.2	5.825
762.4	5.755
762.6	5.763
762.8	5.541
763.0	5.551
763.2	5.237
763.4	5.085
763.6	4.988
763.8	4.693
764.0	4.793
764.2	5.050
764.4	4.990
764.6	5.220
764.8	5.272
765.0	4.874
765.2	5.155
765.4	5.299
765.6	5.164
765.8	5.105
766.0	5.029
766.2	4.691
766.4	4.773
766.6	4.590
766.8	4.541
767.0	4.440
767.2	4.688
767.4	4.898
767.6	5.016
767.8	4.598
768.0	4.496
768.2	4.307
768.4	4.520
768.6	4.758
768.8	4.543
769.0	4.051
769.2	4.029
769.4	4.089
769.6	4.298
769.8	4.391
770.0	4.397
770.2	4.150
770.4	4.235
770.6	4.203
770.8	4.348
771.0	4.230
771.2	4.174
771.4	4.155
771.6	4.206
771.8	4.235
772.0	4.568
772.2	4.697
772.4	4.487
772.6	4.379
772.8	4.109
773.0	3.807
773.2	3.721
773.4	3.806
773.6	3.782
773.8	3.726
774.0	3.830
774.2	3.842
774.4	3.795
774.6	3.734
774.8	3.676
775.0	3.474
775.2	3.645
775.4	3.696
775.6	3.646
775.8	3.644
776.0	3.714
776.2	3.630
776.4	3.798
776.6	3.834
776.8	3.945
777.0	3.893
777.2	3.906
777.4	3.635
777.6	3.625
777.8	3.599
778.0	3.853
778.2	3.897
778.4	3.889
778.6	3.678
778.8	3.618
779.0	3.505
779.2	3.447
779.4	3.325
779.6	3.282
779.8	3.361
780.0	3.429
780.2	3.422
780.4	3.334
780.6	3.213
780.8	3.294
781.0	3.329
781.2	3.255
781.4	3.346
781.6	3.411
781.8	3.619
782.0	3.758
782.2	3.898
782.4	3.616
782.6	3.405
782.8	2.970
783.0	2.948
783.2	2.859
783.4	3.041
783.6	3.169
783.8	3.215
784.0	3.276
784.2	3.313
784.4	3.426
784.6	3.584
784.8	3.895
785.0	3.788
785.2	3.633
785.4	3.376
785.6	3.319
785.8	3.392
786.0	3.519
786.2	3.655
786.4	3.681
786.6	3.642
786.8	3.707
787.0	3.880
787.2	3.797
787.4	3.708
787.6	3.654
787.8	3.308
788.0	3.167
788.2	3.401
788.4	3.556
788.6	3.666
788.8	3.833
789.0	3.949
789.2	4.065
789.4	4.117
789.6	4.155
789.8	4.120
790.0	3.949
790.2	3.958
790.4	3.912
790.6	3.828
790.8	3.901
791.0	3.928
791.2	4.042
791.4	3.984
791.6	4.030
791.8	4.102
792.0	3.988
792.2	3.949
792.4	3.909
792.6	3.934
792.8	4.087
793.0	4.360
793.2	4.386
793.4	4.498
793.6	4.612
793.8	4.620
794.0	4.595
794.2	4.740
794.4	4.789
794.6	4.922
794.8	5.155
795.0	5.215
795.2	5.018
795.4	4.955
795.6	5.012
795.8	4.968
796.0	5.126
796.2	5.328
796.4	5.039
796.6	5.212
796.8	5.212
797.0	5.215
797.2	5.121
797.4	4.994
797.6	4.819
797.8	4.990
798.0	4.991
798.2	5.358
798.4	5.178
798.6	5.299
798.8	5.245
799.0	5.437
799.2	5.664
799.4	5.781
799.6	5.558
799.8	5.271
800.0	5.043

