Sample:	'20211010A(EM)
File name:	G-Ni 1.FDS
Run date:	'15:21:49, 06/19/2023
Operator:	Administrator
Comment:	'

Instrument
Model:	F-4700 FL Spectrophotometer
Serial number:	2019-001
ROM Version:	5J24010 00

Instrument parameters
Measurement type:	Wavelength scan
Scan mode:	Emission
Data mode:	Fluorescence
EX WL:	400.0 nm
EM  Start WL:	420.0 nm
EM  End WL:	800.0 nm
Scan speed:	1200 nm/min
Delay:	0.0 s
EX Slit:	10.0 nm
EM Slit:	10.0 nm
PMT Voltage:	500 V
Response:	0.002 s
Corrected spectra:	Off
Shutter control:	On

Processing performed
Savitsky-Golay smoothed
Smoothing order:	3
Number of points:	7
Number of times:	1

Peak integration
Integration method:	Rectangular
Sensitivity:	1
Threshold:	1.000

Peaks
No.	Start(nm)	Apex(nm)	End(nm)	Height(Data)	Valley(nm)	Valley(Data)
1	420.0	534.6	535.4	704.7	535.4	698.8
2	535.4	538.2	540.0	715.2	540.0	704.4
3	540.0	540.8	541.4	716.4	541.4	704.3
4	541.4	542.2	546.2	711.2	546.2	693.6
5	546.2	546.6	553.0	699.1	553.0	663.3
6	553.0	554.0	704.4	672.7	704.4	17.11
7	704.4	705.0	709.8	18.18	709.8	14.56
8	709.8	710.4	715.0	16.37	715.0	13.17
9	715.0	715.8	729.6	14.27	729.6	7.453
10	729.6	730.6	800.0	8.695	800.0	1.644

Data points
nm	Data
420.0	0.981
420.2	0.740
420.4	0.644
420.6	0.652
420.8	0.722
421.0	0.803
421.2	0.896
421.4	0.782
421.6	0.771
421.8	0.829
422.0	0.788
422.2	0.896
422.4	0.871
422.6	0.774
422.8	0.682
423.0	0.636
423.2	0.541
423.4	0.690
423.6	0.807
423.8	0.830
424.0	0.770
424.2	0.759
424.4	0.755
424.6	0.816
424.8	0.851
425.0	0.819
425.2	0.749
425.4	0.748
425.6	0.764
425.8	0.793
426.0	0.743
426.2	0.672
426.4	0.592
426.6	0.628
426.8	0.668
427.0	0.799
427.2	0.782
427.4	0.814
427.6	0.835
427.8	0.853
428.0	0.782
428.2	0.747
428.4	0.766
428.6	0.863
428.8	0.772
429.0	0.773
429.2	0.643
429.4	0.603
429.6	0.741
429.8	0.907
430.0	0.895
430.2	0.956
430.4	0.938
430.6	0.954
430.8	0.911
431.0	0.825
431.2	0.775
431.4	0.757
431.6	0.762
431.8	0.912
432.0	0.906
432.2	0.757
432.4	0.713
432.6	0.685
432.8	0.662
433.0	0.834
433.2	0.915
433.4	0.832
433.6	0.784
433.8	0.729
434.0	0.643
434.2	0.728
434.4	0.879
434.6	0.885
434.8	0.831
435.0	0.833
435.2	0.777
435.4	0.840
435.6	0.856
435.8	0.881
436.0	0.806
436.2	0.855
436.4	0.891
436.6	0.809
436.8	0.772
437.0	0.880
437.2	0.890
437.4	0.868
437.6	0.818
437.8	0.745
438.0	0.681
438.2	0.719
438.4	0.757
438.6	0.812
438.8	0.807
439.0	0.893
439.2	0.815
439.4	0.695
439.6	0.699
439.8	0.840
440.0	0.831
440.2	0.923
440.4	0.968
440.6	0.869
440.8	0.923
441.0	0.966
441.2	0.819
441.4	0.699
441.6	0.678
441.8	0.764
442.0	0.927
442.2	0.977
442.4	0.927
442.6	0.819
442.8	0.732
443.0	0.764
443.2	0.775
443.4	0.817
443.6	0.922
443.8	1.023
444.0	1.039
444.2	0.913
444.4	0.830
444.6	0.811
444.8	0.828
445.0	0.809
445.2	0.847
445.4	0.759
445.6	0.919
445.8	1.043
446.0	1.131
446.2	1.115
446.4	1.076
446.6	0.899
446.8	0.916
447.0	0.828
447.2	0.892
447.4	0.870
447.6	0.902
447.8	0.892
448.0	0.852
448.2	0.882
448.4	0.890
448.6	0.710
448.8	0.748
449.0	0.754
449.2	0.756
449.4	0.981
449.6	1.111
449.8	1.154
450.0	1.120
450.2	0.928
450.4	0.812
450.6	0.842
450.8	0.984
451.0	1.039
451.2	0.894
451.4	0.744
451.6	0.654
451.8	0.667
452.0	0.823
452.2	1.033
452.4	1.058
452.6	1.041
452.8	0.927
453.0	0.914
453.2	1.104
453.4	1.200
453.6	1.181
453.8	1.056
454.0	0.857
454.2	0.765
454.4	0.726
454.6	0.608
454.8	0.759
455.0	0.880
455.2	0.983
455.4	0.976
455.6	0.801
455.8	0.894
456.0	1.126
456.2	1.216
456.4	1.322
456.6	1.185
456.8	0.997
457.0	1.084
457.2	1.118
457.4	1.113
457.6	1.070
457.8	0.962
458.0	0.950
458.2	0.904
458.4	0.964
458.6	0.973
458.8	0.892
459.0	0.920
459.2	1.003
459.4	0.942
459.6	0.908
459.8	0.953
460.0	1.014
460.2	1.111
460.4	1.203
460.6	1.096
460.8	0.958
461.0	0.957
461.2	0.889
461.4	0.919
461.6	1.070
461.8	1.179
462.0	1.290
462.2	1.213
462.4	1.089
462.6	1.088
462.8	1.087
463.0	1.134
463.2	1.105
463.4	0.998
463.6	0.930
463.8	1.010
464.0	0.999
464.2	1.125
464.4	1.290
464.6	1.304
464.8	1.259
465.0	1.164
465.2	1.129
465.4	1.133
465.6	1.062
465.8	1.145
466.0	1.278
466.2	1.312
466.4	1.432
466.6	1.437
466.8	1.256
467.0	1.367
467.2	1.379
467.4	1.371
467.6	1.358
467.8	1.350
468.0	1.403
468.2	1.493
468.4	1.706
468.6	1.784
468.8	1.838
469.0	1.931
469.2	1.947
469.4	1.792
469.6	1.808
469.8	1.744
470.0	1.745
470.2	1.758
470.4	1.736
470.6	1.682
470.8	1.933
471.0	2.207
471.2	2.296
471.4	2.222
471.6	2.215
471.8	2.159
472.0	2.287
472.2	2.248
472.4	2.192
472.6	2.299
472.8	2.511
473.0	2.643
473.2	2.760
473.4	2.689
473.6	2.671
473.8	2.746
474.0	2.879
474.2	2.943
474.4	3.115
474.6	3.134
474.8	3.246
475.0	3.467
475.2	3.732
475.4	4.014
475.6	4.117
475.8	4.160
476.0	4.314
476.2	4.401
476.4	4.424
476.6	4.574
476.8	4.461
477.0	4.746
477.2	5.102
477.4	5.391
477.6	5.667
477.8	5.685
478.0	5.643
478.2	5.793
478.4	5.788
478.6	6.241
478.8	6.731
479.0	6.832
479.2	6.987
479.4	7.210
479.6	7.394
479.8	8.204
480.0	8.379
480.2	8.424
480.4	8.340
480.6	8.689
480.8	9.142
481.0	10.04
481.2	10.42
481.4	10.45
481.6	10.46
481.8	11.08
482.0	11.70
482.2	12.30
482.4	13.11
482.6	12.91
482.8	13.07
483.0	13.26
483.2	13.62
483.4	14.11
483.6	14.81
483.8	15.33
484.0	15.95
484.2	16.36
484.4	17.05
484.6	18.20
484.8	19.07
485.0	19.99
485.2	20.62
485.4	20.94
485.6	21.53
485.8	22.02
486.0	22.62
486.2	22.70
486.4	23.96
486.6	25.10
486.8	26.59
487.0	27.44
487.2	27.61
487.4	27.39
487.6	28.97
487.8	30.16
488.0	31.84
488.2	33.62
488.4	34.01
488.6	34.69
488.8	35.63
489.0	36.43
489.2	37.85
489.4	39.08
489.6	39.74
489.8	41.08
490.0	42.51
490.2	44.58
490.4	46.73
490.6	47.65
490.8	48.47
491.0	49.58
491.2	51.06
491.4	53.09
491.6	54.49
491.8	56.50
492.0	57.49
492.2	58.75
492.4	60.93
492.6	62.88
492.8	64.25
493.0	67.30
493.2	68.21
493.4	69.56
493.6	71.47
493.8	73.08
494.0	74.68
494.2	77.66
494.4	79.30
494.6	81.56
494.8	83.92
495.0	86.03
495.2	87.81
495.4	90.08
495.6	91.65
495.8	94.58
496.0	96.98
496.2	100.3
496.4	103.0
496.6	104.5
496.8	107.1
497.0	110.5
497.2	113.0
497.4	116.8
497.6	119.2
497.8	121.5
498.0	124.4
498.2	127.7
498.4	130.2
498.6	133.0
498.8	134.3
499.0	137.2
499.2	140.0
499.4	142.8
499.6	146.2
499.8	151.5
500.0	155.4
500.2	158.3
500.4	161.2
500.6	164.0
500.8	167.4
501.0	171.4
501.2	174.8
501.4	178.6
501.6	183.0
501.8	186.2
502.0	189.4
502.2	191.9
502.4	195.1
502.6	201.4
502.8	205.7
503.0	207.9
503.2	211.6
503.4	214.9
503.6	217.5
503.8	223.0
504.0	226.1
504.2	231.3
504.4	237.8
504.6	242.5
504.8	244.4
505.0	247.0
505.2	249.4
505.4	253.4
505.6	258.3
505.8	261.6
506.0	265.1
506.2	269.7
506.4	274.1
506.6	277.9
506.8	282.2
507.0	283.0
507.2	287.1
507.4	294.2
507.6	300.7
507.8	305.4
508.0	312.1
508.2	313.1
508.4	316.2
508.6	321.3
508.8	328.0
509.0	332.3
509.2	339.0
509.4	342.7
509.6	345.8
509.8	351.3
510.0	356.5
510.2	359.7
510.4	363.3
510.6	367.5
510.8	369.8
511.0	375.0
511.2	379.6
511.4	383.6
511.6	387.4
511.8	391.5
512.0	395.5
512.2	400.1
512.4	405.7
512.6	413.2
512.8	417.9
513.0	420.5
513.2	424.6
513.4	427.6
513.6	429.8
513.8	434.9
514.0	440.0
514.2	443.5
514.4	446.1
514.6	452.1
514.8	458.7
515.0	465.3
515.2	471.5
515.4	475.0
515.6	472.6
515.8	473.6
516.0	478.0
516.2	484.8
516.4	492.2
516.6	498.1
516.8	498.5
517.0	499.6
517.2	503.8
517.4	507.6
517.6	511.7
517.8	516.5
518.0	518.3
518.2	523.5
518.4	526.6
518.6	530.1
518.8	532.8
519.0	536.8
519.2	539.7
519.4	545.3
519.6	547.3
519.8	551.0
520.0	554.3
520.2	556.2
520.4	559.4
520.6	563.8
520.8	569.9
521.0	575.4
521.2	579.6
521.4	583.8
521.6	584.0
521.8	582.5
522.0	583.7
522.2	587.5
522.4	590.2
522.6	596.0
522.8	599.6
523.0	602.5
523.2	603.6
523.4	605.6
523.6	610.2
523.8	612.7
524.0	617.8
524.2	619.2
524.4	620.7
524.6	620.6
524.8	626.6
525.0	627.2
525.2	630.3
525.4	632.0
525.6	635.3
525.8	637.0
526.0	642.8
526.2	645.4
526.4	648.7
526.6	652.0
526.8	652.8
527.0	651.8
527.2	653.0
527.4	651.0
527.6	654.8
527.8	659.6
528.0	662.9
528.2	664.3
528.4	666.1
528.6	663.1
528.8	664.1
529.0	668.0
529.2	670.7
529.4	671.5
529.6	673.7
529.8	672.5
530.0	671.5
530.2	674.9
530.4	676.9
530.6	679.6
530.8	683.8
531.0	685.6
531.2	687.6
531.4	690.4
531.6	689.8
531.8	690.9
532.0	692.0
532.2	689.9
532.4	687.9
532.6	689.6
532.8	693.0
533.0	695.1
533.2	696.7
533.4	696.5
533.6	697.4
533.8	700.4
534.0	703.7
534.2	703.3
534.4	704.7
534.6	704.7
534.8	704.4
535.0	701.7
535.2	698.9
535.4	698.8
535.6	702.6
535.8	705.4
536.0	705.2
536.2	704.8
536.4	704.8
536.6	705.5
536.8	706.0
537.0	706.4
537.2	706.0
537.4	707.2
537.6	710.7
537.8	713.4
538.0	713.3
538.2	715.2
538.4	712.8
538.6	710.7
538.8	709.8
539.0	710.7
539.2	709.1
539.4	710.2
539.6	708.7
539.8	707.8
540.0	704.4
540.2	707.1
540.4	709.4
540.6	713.7
540.8	716.4
541.0	714.3
541.2	708.3
541.4	704.3
541.6	704.5
541.8	707.9
542.0	709.7
542.2	711.2
542.4	710.1
542.6	708.0
542.8	707.7
543.0	707.9
543.2	706.8
543.4	706.6
543.6	705.3
543.8	703.6
544.0	703.9
544.2	706.6
544.4	706.7
544.6	706.4
544.8	704.4
545.0	703.2
545.2	703.9
545.4	705.7
545.6	703.4
545.8	698.1
546.0	694.3
546.2	693.6
546.4	697.4
546.6	699.1
546.8	699.0
547.0	698.2
547.2	697.7
547.4	698.6
547.6	698.9
547.8	695.9
548.0	693.5
548.2	691.8
548.4	690.6
548.6	694.0
548.8	693.0
549.0	694.2
549.2	693.1
549.4	689.2
549.6	686.2
549.8	684.9
550.0	681.9
550.2	681.0
550.4	681.4
550.6	680.8
550.8	678.9
551.0	678.7
551.2	678.4
551.4	675.4
551.6	674.9
551.8	672.1
552.0	669.6
552.2	668.1
552.4	668.0
552.6	667.4
552.8	667.0
553.0	663.3
553.2	663.4
553.4	663.9
553.6	667.0
553.8	669.8
554.0	672.7
554.2	668.1
554.4	665.2
554.6	664.6
554.8	660.1
555.0	657.0
555.2	656.8
555.4	655.7
555.6	655.5
555.8	655.1
556.0	653.4
556.2	654.8
556.4	651.0
556.6	650.7
556.8	647.0
557.0	641.6
557.2	641.3
557.4	642.7
557.6	639.8
557.8	640.9
558.0	637.4
558.2	635.7
558.4	633.7
558.6	631.9
558.8	631.0
559.0	632.2
559.2	630.5
559.4	630.7
559.6	628.8
559.8	628.2
560.0	625.1
560.2	621.9
560.4	620.3
560.6	620.1
560.8	620.1
561.0	618.4
561.2	617.0
561.4	611.7
561.6	610.7
561.8	610.5
562.0	611.5
562.2	611.1
562.4	614.7
562.6	611.3
562.8	606.2
563.0	602.7
563.2	599.6
563.4	599.7
563.6	600.9
563.8	598.4
564.0	593.6
564.2	593.0
564.4	589.6
564.6	588.1
564.8	587.9
565.0	587.9
565.2	586.7
565.4	587.9
565.6	585.1
565.8	581.8
566.0	578.6
566.2	579.4
566.4	578.3
566.6	576.2
566.8	573.5
567.0	571.8
567.2	569.8
567.4	570.1
567.6	569.8
567.8	567.5
568.0	567.3
568.2	566.5
568.4	566.4
568.6	563.7
568.8	560.8
569.0	555.6
569.2	553.6
569.4	553.1
569.6	553.9
569.8	554.0
570.0	554.1
570.2	549.1
570.4	546.7
570.6	544.5
570.8	543.7
571.0	543.0
571.2	540.2
571.4	537.1
571.6	532.9
571.8	529.3
572.0	528.6
572.2	528.1
572.4	525.3
572.6	526.1
572.8	525.1
573.0	525.5
573.2	524.1
573.4	522.0
573.6	521.3
573.8	519.9
574.0	517.8
574.2	515.2
574.4	511.5
574.6	509.9
574.8	510.6
575.0	510.3
575.2	509.3
575.4	507.0
575.6	504.6
575.8	504.4
576.0	503.4
576.2	501.7
576.4	498.5
576.6	496.8
576.8	492.6
577.0	489.5
577.2	488.0
577.4	486.7
577.6	485.6
577.8	487.4
578.0	484.7
578.2	482.7
578.4	481.1
578.6	477.6
578.8	477.6
579.0	476.3
579.2	474.4
579.4	473.6
579.6	471.9
579.8	469.4
580.0	469.5
580.2	466.7
580.4	464.6
580.6	463.8
580.8	461.9
581.0	458.2
581.2	455.4
581.4	452.6
581.6	450.7
581.8	451.8
582.0	452.9
582.2	450.0
582.4	448.4
582.6	447.3
582.8	448.3
583.0	446.5
583.2	442.5
583.4	437.8
583.6	433.5
583.8	432.2
584.0	432.2
584.2	430.4
584.4	428.8
584.6	427.2
584.8	427.2
585.0	425.7
585.2	423.4
585.4	421.5
585.6	421.4
585.8	419.2
586.0	419.8
586.2	417.0
586.4	415.6
586.6	415.9
586.8	415.2
587.0	413.9
587.2	412.5
587.4	407.8
587.6	405.0
587.8	404.5
588.0	402.2
588.2	401.1
588.4	398.7
588.6	396.2
588.8	395.4
589.0	396.7
589.2	395.9
589.4	394.3
589.6	391.9
589.8	390.5
590.0	387.1
590.2	387.2
590.4	386.5
590.6	383.4
590.8	380.7
591.0	378.9
591.2	376.4
591.4	376.5
591.6	377.6
591.8	376.8
592.0	375.2
592.2	373.9
592.4	372.9
592.6	369.7
592.8	367.8
593.0	366.0
593.2	364.0
593.4	363.1
593.6	362.4
593.8	361.8
594.0	359.1
594.2	355.9
594.4	352.9
594.6	353.3
594.8	354.1
595.0	352.3
595.2	348.2
595.4	344.2
595.6	340.3
595.8	341.8
596.0	344.9
596.2	343.0
596.4	339.4
596.6	336.6
596.8	332.6
597.0	332.6
597.2	334.9
597.4	333.7
597.6	331.8
597.8	330.7
598.0	328.9
598.2	328.2
598.4	327.1
598.6	322.7
598.8	322.7
599.0	322.1
599.2	321.3
599.4	321.0
599.6	320.6
599.8	319.6
600.0	318.8
600.2	320.1
600.4	317.8
600.6	314.4
600.8	312.1
601.0	309.9
601.2	305.8
601.4	306.7
601.6	304.5
601.8	303.1
602.0	302.2
602.2	300.4
602.4	300.3
602.6	300.8
602.8	298.8
603.0	299.6
603.2	297.3
603.4	294.2
603.6	294.1
603.8	293.1
604.0	289.8
604.2	288.0
604.4	287.4
604.6	287.1
604.8	287.3
605.0	287.5
605.2	284.0
605.4	279.6
605.6	278.5
605.8	277.8
606.0	276.4
606.2	275.8
606.4	274.6
606.6	272.9
606.8	271.5
607.0	270.8
607.2	269.6
607.4	267.6
607.6	266.8
607.8	266.5
608.0	266.8
608.2	266.6
608.4	264.2
608.6	262.5
608.8	261.5
609.0	261.1
609.2	260.0
609.4	259.0
609.6	256.7
609.8	255.5
610.0	254.3
610.2	254.7
610.4	252.1
610.6	252.2
610.8	252.2
611.0	251.1
611.2	250.3
611.4	248.0
611.6	244.1
611.8	242.0
612.0	241.0
612.2	241.1
612.4	242.2
612.6	241.0
612.8	239.5
613.0	237.4
613.2	235.7
613.4	233.5
613.6	231.8
613.8	232.2
614.0	231.2
614.2	230.4
614.4	229.8
614.6	227.6
614.8	225.7
615.0	225.3
615.2	222.8
615.4	221.7
615.6	222.5
615.8	223.1
616.0	222.9
616.2	220.8
616.4	217.4
616.6	216.8
616.8	217.9
617.0	217.6
617.2	217.0
617.4	214.9
617.6	211.9
617.8	211.3
618.0	210.7
618.2	210.4
618.4	211.8
618.6	211.4
618.8	208.1
619.0	206.1
619.2	203.5
619.4	203.1
619.6	203.5
619.8	202.6
620.0	201.4
620.2	200.8
620.4	200.0
620.6	199.1
620.8	196.7
621.0	195.9
621.2	195.5
621.4	194.2
621.6	194.4
621.8	194.3
622.0	191.5
622.2	190.7
622.4	188.7
622.6	188.0
622.8	187.1
623.0	188.1
623.2	186.6
623.4	184.3
623.6	182.9
623.8	182.7
624.0	180.7
624.2	182.1
624.4	181.0
624.6	179.4
624.8	178.8
625.0	177.0
625.2	176.1
625.4	176.8
625.6	175.5
625.8	173.7
626.0	173.5
626.2	171.3
626.4	170.1
626.6	170.7
626.8	168.3
627.0	165.2
627.2	166.4
627.4	165.0
627.6	163.4
627.8	164.3
628.0	162.7
628.2	161.8
628.4	163.0
628.6	161.8
628.8	160.1
629.0	159.6
629.2	157.9
629.4	158.4
629.6	158.7
629.8	157.2
630.0	155.8
630.2	155.1
630.4	154.1
630.6	154.0
630.8	153.3
631.0	151.4
631.2	150.8
631.4	151.2
631.6	151.1
631.8	150.1
632.0	148.3
632.2	147.3
632.4	146.7
632.6	147.2
632.8	145.0
633.0	142.5
633.2	140.3
633.4	140.5
633.6	141.4
633.8	142.7
634.0	141.6
634.2	139.8
634.4	137.0
634.6	134.2
634.8	134.1
635.0	134.9
635.2	135.6
635.4	135.7
635.6	134.4
635.8	131.9
636.0	131.2
636.2	130.4
636.4	130.0
636.6	130.4
636.8	131.2
637.0	129.8
637.2	129.3
637.4	128.6
637.6	127.1
637.8	127.0
638.0	126.4
638.2	125.5
638.4	125.0
638.6	124.5
638.8	122.2
639.0	121.3
639.2	120.5
639.4	121.1
639.6	120.7
639.8	120.7
640.0	119.4
640.2	117.4
640.4	116.5
640.6	115.4
640.8	116.1
641.0	116.4
641.2	115.7
641.4	113.0
641.6	112.6
641.8	112.3
642.0	111.7
642.2	111.5
642.4	111.7
642.6	110.5
642.8	110.6
643.0	109.8
643.2	108.3
643.4	107.9
643.6	107.4
643.8	106.4
644.0	105.7
644.2	103.7
644.4	102.9
644.6	102.4
644.8	100.7
645.0	100.0
645.2	101.1
645.4	101.2
645.6	101.4
645.8	100.4
646.0	97.70
646.2	95.93
646.4	96.54
646.6	96.78
646.8	97.73
647.0	97.63
647.2	96.43
647.4	95.08
647.6	94.54
647.8	93.99
648.0	95.35
648.2	95.98
648.4	95.27
648.6	92.92
648.8	90.84
649.0	90.18
649.2	90.74
649.4	90.46
649.6	89.73
649.8	88.54
650.0	88.97
650.2	88.72
650.4	89.05
650.6	87.12
650.8	85.30
651.0	85.23
651.2	86.08
651.4	85.99
651.6	85.87
651.8	83.40
652.0	82.75
652.2	83.07
652.4	83.37
652.6	82.96
652.8	82.02
653.0	80.35
653.2	79.87
653.4	80.28
653.6	80.88
653.8	80.97
654.0	81.08
654.2	80.29
654.4	79.27
654.6	78.48
654.8	77.81
655.0	76.82
655.2	76.14
655.4	75.41
655.6	75.61
655.8	75.04
656.0	75.57
656.2	74.45
656.4	73.62
656.6	72.61
656.8	72.07
657.0	71.64
657.2	71.88
657.4	71.14
657.6	70.67
657.8	69.64
658.0	68.95
658.2	68.86
658.4	68.34
658.6	67.84
658.8	67.85
659.0	67.68
659.2	68.21
659.4	68.53
659.6	67.64
659.8	66.70
660.0	66.00
660.2	65.28
660.4	64.88
660.6	64.83
660.8	64.72
661.0	65.50
661.2	65.39
661.4	65.06
661.6	64.33
661.8	62.81
662.0	61.48
662.2	60.81
662.4	60.71
662.6	61.13
662.8	61.54
663.0	61.04
663.2	60.25
663.4	59.44
663.6	59.93
663.8	59.87
664.0	59.62
664.2	58.33
664.4	57.17
664.6	56.25
664.8	56.16
665.0	56.07
665.2	56.08
665.4	55.32
665.6	55.53
665.8	55.72
666.0	55.65
666.2	55.42
666.4	54.85
666.6	54.54
666.8	54.43
667.0	54.38
667.2	53.85
667.4	53.43
667.6	52.76
667.8	52.15
668.0	51.32
668.2	50.49
668.4	50.69
668.6	51.07
668.8	50.75
669.0	50.17
669.2	49.81
669.4	49.85
669.6	50.34
669.8	50.19
670.0	50.23
670.2	49.46
670.4	49.06
670.6	48.97
670.8	48.03
671.0	46.72
671.2	47.06
671.4	46.99
671.6	47.13
671.8	47.27
672.0	46.74
672.2	45.87
672.4	45.54
672.6	45.92
672.8	45.29
673.0	44.86
673.2	44.30
673.4	44.43
673.6	44.39
673.8	44.34
674.0	43.61
674.2	43.15
674.4	43.12
674.6	43.53
674.8	43.55
675.0	42.85
675.2	41.99
675.4	41.79
675.6	41.80
675.8	41.45
676.0	41.21
676.2	40.85
676.4	39.82
676.6	39.62
676.8	39.10
677.0	38.45
677.2	38.46
677.4	38.41
677.6	38.61
677.8	38.86
678.0	38.62
678.2	38.18
678.4	38.22
678.6	37.86
678.8	37.47
679.0	36.21
679.2	36.39
679.4	36.34
679.6	36.60
679.8	36.70
680.0	36.49
680.2	35.28
680.4	35.17
680.6	34.47
680.8	34.55
681.0	35.01
681.2	35.17
681.4	34.87
681.6	34.30
681.8	33.62
682.0	33.81
682.2	34.12
682.4	33.55
682.6	33.72
682.8	33.92
683.0	33.46
683.2	33.34
683.4	32.66
683.6	31.69
683.8	31.27
684.0	31.03
684.2	30.85
684.4	31.20
684.6	30.90
684.8	30.50
685.0	29.73
685.2	29.89
685.4	29.47
685.6	29.27
685.8	29.43
686.0	29.43
686.2	29.45
686.4	29.77
686.6	29.14
686.8	28.91
687.0	29.38
687.2	29.55
687.4	29.94
687.6	29.34
687.8	28.13
688.0	28.01
688.2	27.88
688.4	27.36
688.6	27.75
688.8	27.54
689.0	27.36
689.2	27.70
689.4	27.65
689.6	26.99
689.8	26.47
690.0	25.96
690.2	26.11
690.4	25.82
690.6	26.09
690.8	25.98
691.0	25.88
691.2	26.07
691.4	25.95
691.6	25.51
691.8	25.40
692.0	24.61
692.2	24.34
692.4	24.36
692.6	24.32
692.8	24.41
693.0	24.38
693.2	24.24
693.4	23.87
693.6	24.08
693.8	24.26
694.0	24.32
694.2	23.96
694.4	23.87
694.6	23.21
694.8	23.05
695.0	22.33
695.2	21.66
695.4	21.29
695.6	21.71
695.8	21.79
696.0	22.07
696.2	21.92
696.4	21.60
696.6	21.27
696.8	21.57
697.0	21.34
697.2	21.57
697.4	21.68
697.6	21.61
697.8	21.30
698.0	21.14
698.2	20.64
698.4	20.53
698.6	20.75
698.8	20.57
699.0	20.83
699.2	21.12
699.4	20.93
699.6	20.62
699.8	20.17
700.0	19.58
700.2	19.69
700.4	20.04
700.6	19.72
700.8	19.54
701.0	19.57
701.2	19.33
701.4	19.66
701.6	19.88
701.8	19.67
702.0	19.51
702.2	19.31
702.4	18.78
702.6	18.49
702.8	18.71
703.0	19.00
703.2	18.92
703.4	18.86
703.6	19.02
703.8	18.78
704.0	18.48
704.2	17.66
704.4	17.11
704.6	17.37
704.8	17.78
705.0	18.18
705.2	18.03
705.4	17.80
705.6	17.67
705.8	17.46
706.0	17.08
706.2	16.73
706.4	16.53
706.6	16.61
706.8	16.77
707.0	16.77
707.2	16.80
707.4	16.65
707.6	16.54
707.8	16.28
708.0	16.20
708.2	16.33
708.4	16.69
708.6	16.55
708.8	16.82
709.0	16.43
709.2	15.86
709.4	15.19
709.6	14.78
709.8	14.56
710.0	15.52
710.2	15.82
710.4	16.37
710.6	16.14
710.8	15.59
711.0	15.01
711.2	14.52
711.4	14.23
711.6	14.63
711.8	14.81
712.0	15.22
712.2	15.01
712.4	14.46
712.6	14.27
712.8	14.29
713.0	14.21
713.2	14.91
713.4	14.70
713.6	14.25
713.8	13.59
714.0	13.55
714.2	13.50
714.4	14.13
714.6	14.23
714.8	13.88
715.0	13.17
715.2	13.55
715.4	13.73
715.6	14.03
715.8	14.27
716.0	14.05
716.2	13.73
716.4	13.74
716.6	13.03
716.8	12.70
717.0	12.78
717.2	12.80
717.4	12.94
717.6	12.93
717.8	12.39
718.0	12.08
718.2	11.97
718.4	11.71
718.6	11.84
718.8	11.90
719.0	11.96
719.2	11.99
719.4	11.87
719.6	11.58
719.8	11.62
720.0	11.80
720.2	11.60
720.4	11.56
720.6	11.38
720.8	10.99
721.0	11.32
721.2	11.76
721.4	11.62
721.6	11.46
721.8	11.16
722.0	10.33
722.2	10.22
722.4	10.38
722.6	10.93
722.8	11.05
723.0	10.89
723.2	10.40
723.4	10.19
723.6	10.04
723.8	10.38
724.0	10.44
724.2	10.35
724.4	10.28
724.6	10.21
724.8	9.742
725.0	9.476
725.2	9.559
725.4	9.592
725.6	9.602
725.8	9.584
726.0	9.524
726.2	9.400
726.4	9.313
726.6	9.034
726.8	8.753
727.0	8.640
727.2	8.706
727.4	8.714
727.6	8.499
727.8	8.871
728.0	8.931
728.2	8.794
728.4	8.706
728.6	8.492
728.8	8.011
729.0	8.140
729.2	7.996
729.4	7.669
729.6	7.453
729.8	7.613
730.0	7.685
730.2	7.880
730.4	8.503
730.6	8.695
730.8	8.572
731.0	8.447
731.2	8.146
731.4	8.106
731.6	8.203
731.8	7.852
732.0	7.538
732.2	7.438
732.4	7.636
732.6	8.109
732.8	8.121
733.0	7.840
733.2	7.441
733.4	7.117
733.6	7.015
733.8	7.322
734.0	7.158
734.2	7.307
734.4	7.503
734.6	7.371
734.8	7.190
735.0	7.106
735.2	6.705
735.4	6.511
735.6	6.646
735.8	6.426
736.0	6.688
736.2	6.554
736.4	6.620
736.6	6.717
736.8	6.961
737.0	6.546
737.2	6.798
737.4	6.563
737.6	6.351
737.8	6.250
738.0	6.306
738.2	6.073
738.4	6.221
738.6	6.280
738.8	6.153
739.0	6.167
739.2	6.280
739.4	6.550
739.6	6.729
739.8	6.568
740.0	6.152
740.2	6.062
740.4	6.083
740.6	6.283
740.8	6.388
741.0	6.060
741.2	5.828
741.4	5.876
741.6	5.902
741.8	5.924
742.0	5.729
742.2	5.408
742.4	5.291
742.6	5.396
742.8	5.464
743.0	5.549
743.2	5.556
743.4	5.313
743.6	4.947
743.8	4.932
744.0	5.041
744.2	5.309
744.4	5.634
744.6	5.817
744.8	5.844
745.0	5.686
745.2	5.805
745.4	5.642
745.6	5.362
745.8	5.314
746.0	5.403
746.2	5.190
746.4	5.402
746.6	5.374
746.8	5.272
747.0	4.984
747.2	4.726
747.4	4.553
747.6	4.677
747.8	4.965
748.0	5.020
748.2	4.698
748.4	4.449
748.6	4.320
748.8	4.449
749.0	4.644
749.2	4.711
749.4	4.628
749.6	4.624
749.8	4.608
750.0	4.647
750.2	4.434
750.4	4.307
750.6	4.078
750.8	4.051
751.0	4.297
751.2	4.392
751.4	4.297
751.6	4.166
751.8	4.204
752.0	4.487
752.2	4.595
752.4	4.365
752.6	4.020
752.8	3.651
753.0	3.802
753.2	4.103
753.4	4.339
753.6	4.317
753.8	4.194
754.0	4.054
754.2	3.793
754.4	3.930
754.6	4.123
754.8	4.178
755.0	4.166
755.2	4.169
755.4	4.096
755.6	4.303
755.8	4.271
756.0	4.028
756.2	3.694
756.4	3.585
756.6	3.707
756.8	3.648
757.0	3.695
757.2	3.749
757.4	3.760
757.6	3.698
757.8	3.636
758.0	3.268
758.2	3.244
758.4	3.571
758.6	3.679
758.8	3.640
759.0	3.683
759.2	3.552
759.4	3.513
759.6	3.600
759.8	3.555
760.0	3.490
760.2	3.355
760.4	3.498
760.6	3.410
760.8	3.371
761.0	3.454
761.2	3.398
761.4	3.114
761.6	3.242
761.8	3.185
762.0	3.130
762.2	3.227
762.4	3.310
762.6	3.330
762.8	3.457
763.0	3.516
763.2	3.446
763.4	3.400
763.6	3.389
763.8	3.343
764.0	3.369
764.2	3.213
764.4	3.282
764.6	3.220
764.8	3.080
765.0	2.875
765.2	2.876
765.4	2.755
765.6	2.872
765.8	2.997
766.0	2.833
766.2	2.886
766.4	3.006
766.6	2.982
766.8	2.832
767.0	2.708
767.2	2.510
767.4	2.640
767.6	2.851
767.8	2.803
768.0	2.720
768.2	2.636
768.4	2.599
768.6	2.681
768.8	2.864
769.0	2.717
769.2	2.668
769.4	2.490
769.6	2.650
769.8	2.689
770.0	2.691
770.2	2.559
770.4	2.455
770.6	2.448
770.8	2.917
771.0	2.944
771.2	2.756
771.4	2.414
771.6	2.142
771.8	2.309
772.0	2.588
772.2	2.693
772.4	2.765
772.6	2.622
772.8	2.587
773.0	2.494
773.2	2.521
773.4	2.350
773.6	2.501
773.8	2.540
774.0	2.607
774.2	2.400
774.4	2.625
774.6	2.521
774.8	2.517
775.0	2.457
775.2	2.410
775.4	2.251
775.6	2.341
775.8	2.297
776.0	2.225
776.2	2.228
776.4	2.307
776.6	2.247
776.8	2.179
777.0	2.083
777.2	2.029
777.4	2.006
777.6	2.012
777.8	1.802
778.0	1.831
778.2	1.892
778.4	2.077
778.6	2.202
778.8	2.348
779.0	2.226
779.2	2.111
779.4	2.083
779.6	2.068
779.8	2.132
780.0	2.203
780.2	2.212
780.4	2.159
780.6	2.118
780.8	2.131
781.0	2.191
781.2	2.097
781.4	2.099
781.6	2.169
781.8	2.139
782.0	2.165
782.2	2.005
782.4	1.990
782.6	1.925
782.8	2.095
783.0	2.155
783.2	2.169
783.4	2.065
783.6	2.027
783.8	1.949
784.0	1.922
784.2	1.905
784.4	1.908
784.6	1.933
784.8	1.997
785.0	1.948
785.2	1.893
785.4	1.999
785.6	2.060
785.8	2.036
786.0	2.005
786.2	1.868
786.4	1.866
786.6	1.899
786.8	2.017
787.0	1.931
787.2	1.897
787.4	1.866
787.6	1.867
787.8	1.877
788.0	1.935
788.2	1.735
788.4	1.666
788.6	1.560
788.8	1.681
789.0	1.916
789.2	2.080
789.4	2.138
789.6	2.052
789.8	1.947
790.0	1.894
790.2	1.776
790.4	1.808
790.6	1.932
790.8	2.019
791.0	2.165
791.2	2.091
791.4	1.936
791.6	2.056
791.8	1.974
792.0	1.979
792.2	1.848
792.4	1.808
792.6	1.724
792.8	1.878
793.0	1.939
793.2	1.870
793.4	1.772
793.6	1.839
793.8	1.741
794.0	1.854
794.2	1.928
794.4	1.814
794.6	1.811
794.8	1.829
795.0	1.749
795.2	1.780
795.4	1.780
795.6	1.690
795.8	1.658
796.0	1.710
796.2	1.624
796.4	1.684
796.6	1.764
796.8	1.928
797.0	1.949
797.2	1.924
797.4	1.864
797.6	1.810
797.8	1.651
798.0	1.818
798.2	1.916
798.4	1.820
798.6	1.891
798.8	1.873
799.0	1.721
799.2	1.724
799.4	1.756
799.6	1.628
799.8	1.559
800.0	1.644

