Sample:	'20211010A(EM)
File name:	G-Ni 7.FDS
Run date:	'16:10:16, 06/19/2023
Operator:	Administrator
Comment:	'

Instrument
Model:	F-4700 FL Spectrophotometer
Serial number:	2019-001
ROM Version:	5J24010 00

Instrument parameters
Measurement type:	Wavelength scan
Scan mode:	Emission
Data mode:	Fluorescence
EX WL:	400.0 nm
EM  Start WL:	420.0 nm
EM  End WL:	800.0 nm
Scan speed:	1200 nm/min
Delay:	0.0 s
EX Slit:	10.0 nm
EM Slit:	10.0 nm
PMT Voltage:	500 V
Response:	0.002 s
Corrected spectra:	Off
Shutter control:	On

Processing performed
Savitsky-Golay smoothed
Smoothing order:	3
Number of points:	7
Number of times:	1

Peak integration
Integration method:	Rectangular
Sensitivity:	1
Threshold:	1.000

Peaks
No.	Start(nm)	Apex(nm)	End(nm)	Height(Data)	Valley(nm)	Valley(Data)
1	420.0	532.8	533.6	1712	533.6	1702
2	533.6	537.2	538.0	1732	538.0	1718
3	538.0	540.6	681.0	1734	681.0	66.10
4	681.0	681.8	703.8	67.64	703.8	32.70
5	703.8	704.6	723.8	34.12	723.8	17.24
6	723.8	724.2	733.0	18.29	733.0	12.45
7	733.0	733.8	800.0	13.56	800.0	2.723

Data points
nm	Data
420.0	1.465
420.2	1.528
420.4	1.423
420.6	1.262
420.8	1.257
421.0	1.302
421.2	1.280
421.4	1.319
421.6	1.196
421.8	1.201
422.0	1.162
422.2	1.208
422.4	1.247
422.6	1.299
422.8	1.316
423.0	1.334
423.2	1.180
423.4	1.139
423.6	1.143
423.8	1.175
424.0	1.194
424.2	1.183
424.4	1.169
424.6	1.115
424.8	1.243
425.0	1.291
425.2	1.344
425.4	1.293
425.6	1.321
425.8	1.216
426.0	1.115
426.2	1.014
426.4	1.035
426.6	1.148
426.8	1.277
427.0	1.334
427.2	1.237
427.4	1.139
427.6	1.187
427.8	1.338
428.0	1.418
428.2	1.453
428.4	1.451
428.6	1.286
428.8	1.235
429.0	1.232
429.2	1.182
429.4	1.100
429.6	1.096
429.8	1.072
430.0	1.110
430.2	1.155
430.4	1.289
430.6	1.311
430.8	1.363
431.0	1.495
431.2	1.437
431.4	1.316
431.6	1.346
431.8	1.177
432.0	1.129
432.2	1.276
432.4	1.250
432.6	1.234
432.8	1.255
433.0	1.263
433.2	1.182
433.4	1.279
433.6	1.371
433.8	1.359
434.0	1.368
434.2	1.391
434.4	1.216
434.6	1.137
434.8	1.100
435.0	1.120
435.2	1.343
435.4	1.400
435.6	1.335
435.8	1.283
436.0	1.185
436.2	1.217
436.4	1.409
436.6	1.277
436.8	1.170
437.0	1.072
437.2	1.097
437.4	1.289
437.6	1.525
437.8	1.565
438.0	1.576
438.2	1.361
438.4	1.305
438.6	1.420
438.8	1.384
439.0	1.359
439.2	1.233
439.4	1.150
439.6	1.215
439.8	1.358
440.0	1.453
440.2	1.466
440.4	1.263
440.6	1.269
440.8	1.315
441.0	1.206
441.2	1.273
441.4	1.228
441.6	1.112
441.8	1.221
442.0	1.366
442.2	1.309
442.4	1.303
442.6	1.266
442.8	1.268
443.0	1.309
443.2	1.257
443.4	1.209
443.6	1.242
443.8	1.360
444.0	1.479
444.2	1.464
444.4	1.258
444.6	1.071
444.8	1.019
445.0	1.053
445.2	1.072
445.4	1.165
445.6	1.235
445.8	1.262
446.0	1.326
446.2	1.411
446.4	1.377
446.6	1.285
446.8	1.182
447.0	1.209
447.2	1.318
447.4	1.453
447.6	1.460
447.8	1.451
448.0	1.377
448.2	1.402
448.4	1.446
448.6	1.455
448.8	1.333
449.0	1.339
449.2	1.245
449.4	1.367
449.6	1.438
449.8	1.631
450.0	1.589
450.2	1.426
450.4	1.210
450.6	1.255
450.8	1.366
451.0	1.468
451.2	1.554
451.4	1.541
451.6	1.539
451.8	1.555
452.0	1.726
452.2	1.631
452.4	1.596
452.6	1.573
452.8	1.484
453.0	1.460
453.2	1.411
453.4	1.389
453.6	1.493
453.8	1.585
454.0	1.523
454.2	1.546
454.4	1.275
454.6	1.220
454.8	1.332
455.0	1.317
455.2	1.312
455.4	1.411
455.6	1.398
455.8	1.466
456.0	1.590
456.2	1.663
456.4	1.689
456.6	1.636
456.8	1.562
457.0	1.451
457.2	1.431
457.4	1.456
457.6	1.555
457.8	1.648
458.0	1.614
458.2	1.596
458.4	1.446
458.6	1.513
458.8	1.682
459.0	1.859
459.2	1.822
459.4	1.836
459.6	1.593
459.8	1.608
460.0	1.622
460.2	1.764
460.4	1.886
460.6	1.909
460.8	1.875
461.0	1.811
461.2	1.805
461.4	1.876
461.6	1.862
461.8	1.702
462.0	1.781
462.2	1.898
462.4	2.191
462.6	2.205
462.8	2.183
463.0	2.088
463.2	2.019
463.4	2.074
463.6	2.291
463.8	2.269
464.0	2.181
464.2	2.360
464.4	2.324
464.6	2.478
464.8	2.471
465.0	2.444
465.2	2.453
465.4	2.576
465.6	2.617
465.8	2.715
466.0	2.613
466.2	2.536
466.4	2.546
466.6	2.375
466.8	2.620
467.0	2.780
467.2	3.051
467.4	3.203
467.6	3.275
467.8	3.258
468.0	3.344
468.2	3.259
468.4	3.484
468.6	3.470
468.8	3.460
469.0	3.563
469.2	3.503
469.4	3.493
469.6	3.681
469.8	3.896
470.0	3.976
470.2	4.306
470.4	4.575
470.6	4.756
470.8	4.712
471.0	4.816
471.2	4.628
471.4	5.004
471.6	5.580
471.8	6.036
472.0	6.124
472.2	6.076
472.4	5.830
472.6	5.884
472.8	6.092
473.0	6.425
473.2	6.414
473.4	6.839
473.6	7.164
473.8	7.526
474.0	7.816
474.2	8.317
474.4	8.493
474.6	9.214
474.8	9.848
475.0	10.19
475.2	10.09
475.4	9.845
475.6	9.758
475.8	9.940
476.0	11.07
476.2	12.26
476.4	13.06
476.6	13.35
476.8	13.80
477.0	13.81
477.2	14.49
477.4	15.03
477.6	15.36
477.8	15.59
478.0	16.28
478.2	16.84
478.4	17.55
478.6	18.05
478.8	18.38
479.0	18.51
479.2	19.18
479.4	20.41
479.6	21.08
479.8	21.74
480.0	22.64
480.2	23.31
480.4	24.05
480.6	25.56
480.8	26.47
481.0	27.80
481.2	28.70
481.4	28.97
481.6	29.39
481.8	30.53
482.0	31.60
482.2	32.61
482.4	33.58
482.6	34.35
482.8	35.80
483.0	37.47
483.2	38.46
483.4	39.46
483.6	41.58
483.8	43.65
484.0	45.94
484.2	46.82
484.4	47.40
484.6	48.17
484.8	49.66
485.0	52.01
485.2	53.68
485.4	55.06
485.6	57.45
485.8	59.47
486.0	62.22
486.2	65.48
486.4	66.73
486.6	68.77
486.8	71.54
487.0	73.93
487.2	76.25
487.4	78.06
487.6	79.09
487.8	80.18
488.0	83.58
488.2	87.27
488.4	90.55
488.6	93.36
488.8	96.47
489.0	97.97
489.2	101.8
489.4	105.4
489.6	109.4
489.8	113.2
490.0	117.1
490.2	119.0
490.4	121.1
490.6	123.7
490.8	126.6
491.0	131.1
491.2	136.0
491.4	140.7
491.6	145.1
491.8	149.8
492.0	153.4
492.2	157.7
492.4	161.0
492.6	165.2
492.8	169.4
493.0	174.5
493.2	178.2
493.4	183.5
493.6	188.5
493.8	194.5
494.0	200.4
494.2	206.9
494.4	210.7
494.6	213.8
494.8	218.4
495.0	223.0
495.2	229.5
495.4	237.5
495.6	243.6
495.8	249.0
496.0	256.0
496.2	261.9
496.4	269.9
496.6	275.9
496.8	281.3
497.0	289.1
497.2	294.6
497.4	300.7
497.6	306.5
497.8	312.6
498.0	319.7
498.2	329.6
498.4	338.7
498.6	347.7
498.8	353.0
499.0	360.1
499.2	365.8
499.4	373.9
499.6	380.4
499.8	387.3
500.0	392.9
500.2	402.5
500.4	412.3
500.6	424.2
500.8	433.6
501.0	443.3
501.2	449.1
501.4	457.8
501.6	464.6
501.8	475.3
502.0	485.0
502.2	497.2
502.4	505.3
502.6	513.2
502.8	519.7
503.0	527.1
503.2	536.5
503.4	547.1
503.6	557.2
503.8	567.6
504.0	576.9
504.2	587.0
504.4	599.6
504.6	610.1
504.8	620.2
505.0	631.5
505.2	639.6
505.4	649.1
505.6	658.0
505.8	667.6
506.0	675.8
506.2	686.3
506.4	697.6
506.6	709.8
506.8	722.4
507.0	733.6
507.2	744.3
507.4	753.9
507.6	763.7
507.8	774.2
508.0	784.0
508.2	793.8
508.4	807.0
508.6	820.0
508.8	828.3
509.0	837.4
509.2	846.5
509.4	854.6
509.6	865.5
509.8	879.5
510.0	888.1
510.2	899.3
510.4	909.9
510.6	921.6
510.8	935.1
511.0	947.9
511.2	957.9
511.4	967.8
511.6	976.4
511.8	986.1
512.0	996.8
512.2	1008
512.4	1020
512.6	1030
512.8	1040
513.0	1048
513.2	1055
513.4	1070
513.6	1079
513.8	1092
514.0	1101
514.2	1108
514.4	1117
514.6	1130
514.8	1136
515.0	1148
515.2	1159
515.4	1168
515.6	1182
515.8	1195
516.0	1199
516.2	1206
516.4	1213
516.6	1220
516.8	1232
517.0	1246
517.2	1255
517.4	1266
517.6	1277
517.8	1288
518.0	1293
518.2	1300
518.4	1305
518.6	1316
518.8	1326
519.0	1338
519.2	1343
519.4	1354
519.6	1361
519.8	1368
520.0	1374
520.2	1383
520.4	1393
520.6	1407
520.8	1412
521.0	1418
521.2	1426
521.4	1432
521.6	1439
521.8	1447
522.0	1450
522.2	1458
522.4	1466
522.6	1476
522.8	1483
523.0	1487
523.2	1493
523.4	1497
523.6	1501
523.8	1510
524.0	1515
524.2	1519
524.4	1529
524.6	1537
524.8	1545
525.0	1552
525.2	1556
525.4	1559
525.6	1561
525.8	1566
526.0	1577
526.2	1583
526.4	1591
526.6	1593
526.8	1591
527.0	1592
527.2	1599
527.4	1606
527.6	1616
527.8	1622
528.0	1625
528.2	1627
528.4	1628
528.6	1634
528.8	1640
529.0	1645
529.2	1644
529.4	1648
529.6	1648
529.8	1655
530.0	1661
530.2	1667
530.4	1665
530.6	1670
530.8	1668
531.0	1670
531.2	1672
531.4	1680
531.6	1683
531.8	1686
532.0	1689
532.2	1695
532.4	1703
532.6	1709
532.8	1712
533.0	1708
533.2	1706
533.4	1703
533.6	1702
533.8	1705
534.0	1707
534.2	1710
534.4	1715
534.6	1717
534.8	1714
535.0	1718
535.2	1718
535.4	1718
535.6	1723
535.8	1724
536.0	1722
536.2	1725
536.4	1723
536.6	1724
536.8	1728
537.0	1730
537.2	1732
537.4	1730
537.6	1723
537.8	1718
538.0	1718
538.2	1722
538.4	1727
538.6	1730
538.8	1728
539.0	1727
539.2	1725
539.4	1731
539.6	1730
539.8	1731
540.0	1726
540.2	1728
540.4	1727
540.6	1734
540.8	1731
541.0	1732
541.2	1726
541.4	1722
541.6	1713
541.8	1717
542.0	1718
542.2	1719
542.4	1715
542.6	1711
542.8	1708
543.0	1709
543.2	1711
543.4	1712
543.6	1715
543.8	1716
544.0	1714
544.2	1704
544.4	1699
544.6	1697
544.8	1700
545.0	1700
545.2	1701
545.4	1699
545.6	1699
545.8	1696
546.0	1695
546.2	1695
546.4	1695
546.6	1695
546.8	1687
547.0	1677
547.2	1670
547.4	1670
547.6	1674
547.8	1674
548.0	1671
548.2	1669
548.4	1661
548.6	1655
548.8	1657
549.0	1653
549.2	1652
549.4	1652
549.6	1649
549.8	1645
550.0	1649
550.2	1650
550.4	1650
550.6	1641
550.8	1637
551.0	1631
551.2	1635
551.4	1637
551.6	1635
551.8	1626
552.0	1623
552.2	1615
552.4	1616
552.6	1615
552.8	1608
553.0	1605
553.2	1604
553.4	1599
553.6	1596
553.8	1593
554.0	1588
554.2	1585
554.4	1588
554.6	1585
554.8	1577
555.0	1573
555.2	1566
555.4	1562
555.6	1561
555.8	1555
556.0	1554
556.2	1556
556.4	1550
556.6	1548
556.8	1541
557.0	1535
557.2	1532
557.4	1531
557.6	1530
557.8	1532
558.0	1529
558.2	1526
558.4	1519
558.6	1513
558.8	1509
559.0	1505
559.2	1501
559.4	1499
559.6	1495
559.8	1492
560.0	1488
560.2	1480
560.4	1475
560.6	1471
560.8	1468
561.0	1464
561.2	1461
561.4	1457
561.6	1454
561.8	1451
562.0	1451
562.2	1453
562.4	1448
562.6	1441
562.8	1432
563.0	1423
563.2	1421
563.4	1422
563.6	1417
563.8	1413
564.0	1407
564.2	1401
564.4	1398
564.6	1394
564.8	1392
565.0	1386
565.2	1380
565.4	1376
565.6	1374
565.8	1374
566.0	1372
566.2	1369
566.4	1364
566.6	1357
566.8	1353
567.0	1349
567.2	1341
567.4	1339
567.6	1334
567.8	1329
568.0	1327
568.2	1323
568.4	1317
568.6	1317
568.8	1309
569.0	1305
569.2	1305
569.4	1303
569.6	1298
569.8	1295
570.0	1283
570.2	1280
570.4	1278
570.6	1274
570.8	1266
571.0	1262
571.2	1257
571.4	1256
571.6	1252
571.8	1246
572.0	1240
572.2	1235
572.4	1231
572.6	1229
572.8	1227
573.0	1224
573.2	1222
573.4	1214
573.6	1205
573.8	1200
574.0	1196
574.2	1197
574.4	1192
574.6	1186
574.8	1179
575.0	1171
575.2	1169
575.4	1173
575.6	1168
575.8	1166
576.0	1160
576.2	1151
576.4	1146
576.6	1144
576.8	1139
577.0	1138
577.2	1137
577.4	1132
577.6	1125
577.8	1118
578.0	1114
578.2	1112
578.4	1113
578.6	1113
578.8	1110
579.0	1103
579.2	1094
579.4	1086
579.6	1078
579.8	1073
580.0	1072
580.2	1073
580.4	1071
580.6	1067
580.8	1063
581.0	1054
581.2	1055
581.4	1053
581.6	1051
581.8	1044
582.0	1043
582.2	1033
582.4	1028
582.6	1020
582.8	1015
583.0	1011
583.2	1014
583.4	1011
583.6	1007
583.8	999.8
584.0	996.1
584.2	989.4
584.4	986.7
584.6	979.2
584.8	973.3
585.0	970.6
585.2	970.5
585.4	969.5
585.6	969.1
585.8	963.7
586.0	959.8
586.2	954.8
586.4	949.3
586.6	946.3
586.8	943.2
587.0	941.0
587.2	938.2
587.4	932.2
587.6	930.0
587.8	927.7
588.0	924.2
588.2	918.7
588.4	913.3
588.6	906.0
588.8	902.5
589.0	898.1
589.2	893.9
589.4	890.3
589.6	887.1
589.8	884.1
590.0	881.5
590.2	874.8
590.4	867.9
590.6	865.2
590.8	864.3
591.0	864.4
591.2	861.7
591.4	858.4
591.6	855.9
591.8	853.1
592.0	846.8
592.2	842.5
592.4	835.8
592.6	830.8
592.8	825.7
593.0	822.9
593.2	818.9
593.4	819.2
593.6	819.4
593.8	813.5
594.0	807.0
594.2	806.8
594.4	803.2
594.6	798.9
594.8	793.8
595.0	789.3
595.2	784.7
595.4	783.5
595.6	779.9
595.8	775.4
596.0	768.1
596.2	766.9
596.4	765.1
596.6	762.6
596.8	759.1
597.0	759.6
597.2	754.2
597.4	750.3
597.6	746.9
597.8	742.4
598.0	734.7
598.2	733.7
598.4	731.7
598.6	729.6
598.8	727.1
599.0	723.3
599.2	716.5
599.4	712.1
599.6	712.3
599.8	711.1
600.0	708.2
600.2	704.2
600.4	701.2
600.6	697.0
600.8	695.3
601.0	692.0
601.2	686.9
601.4	685.1
601.6	684.4
601.8	680.6
602.0	677.7
602.2	673.8
602.4	668.4
602.6	665.8
602.8	661.9
603.0	657.7
603.2	656.3
603.4	653.5
603.6	649.2
603.8	647.1
604.0	643.1
604.2	638.5
604.4	635.6
604.6	633.3
604.8	630.8
605.0	629.1
605.2	627.0
605.4	622.6
605.6	619.2
605.8	617.0
606.0	614.6
606.2	610.2
606.4	607.5
606.6	603.0
606.8	601.5
607.0	600.2
607.2	600.4
607.4	598.3
607.6	594.9
607.8	589.1
608.0	584.1
608.2	581.4
608.4	577.5
608.6	576.3
608.8	574.8
609.0	573.0
609.2	569.6
609.4	567.5
609.6	562.7
609.8	563.2
610.0	564.7
610.2	561.5
610.4	556.8
610.6	553.4
610.8	547.8
611.0	546.1
611.2	544.2
611.4	539.4
611.6	535.8
611.8	533.3
612.0	529.7
612.2	528.1
612.4	525.7
612.6	522.6
612.8	521.0
613.0	519.9
613.2	518.1
613.4	516.6
613.6	514.1
613.8	511.5
614.0	508.6
614.2	504.5
614.4	498.4
614.6	496.6
614.8	494.6
615.0	494.0
615.2	493.9
615.4	487.9
615.6	484.8
615.8	487.0
616.0	484.2
616.2	482.3
616.4	478.2
616.6	469.9
616.8	466.5
617.0	466.3
617.2	464.8
617.4	463.9
617.6	462.3
617.8	460.4
618.0	459.6
618.2	457.8
618.4	454.3
618.6	450.8
618.8	447.6
619.0	443.1
619.2	441.6
619.4	438.6
619.6	435.7
619.8	434.8
620.0	431.8
620.2	428.6
620.4	426.3
620.6	423.8
620.8	423.3
621.0	423.2
621.2	421.8
621.4	421.1
621.6	417.4
621.8	413.5
622.0	410.1
622.2	407.5
622.4	406.4
622.6	406.1
622.8	404.5
623.0	403.1
623.2	399.2
623.4	398.0
623.6	394.9
623.8	395.4
624.0	393.2
624.2	391.1
624.4	386.0
624.6	383.2
624.8	377.8
625.0	375.9
625.2	373.8
625.4	371.3
625.6	370.5
625.8	370.6
626.0	370.4
626.2	368.5
626.4	368.3
626.6	363.7
626.8	360.8
627.0	357.4
627.2	355.7
627.4	353.5
627.6	353.6
627.8	353.0
628.0	351.0
628.2	347.9
628.4	344.6
628.6	341.6
628.8	339.7
629.0	337.9
629.2	337.6
629.4	336.0
629.6	332.2
629.8	329.8
630.0	326.8
630.2	323.4
630.4	322.4
630.6	320.9
630.8	318.2
631.0	317.7
631.2	317.1
631.4	314.9
631.6	312.4
631.8	310.7
632.0	309.2
632.2	309.1
632.4	308.0
632.6	307.2
632.8	304.6
633.0	304.0
633.2	301.9
633.4	299.8
633.6	296.4
633.8	294.6
634.0	290.1
634.2	290.1
634.4	288.1
634.6	289.4
634.8	288.4
635.0	285.6
635.2	281.0
635.4	280.3
635.6	278.6
635.8	281.1
636.0	280.5
636.2	278.6
636.4	274.8
636.6	273.4
636.8	271.6
637.0	269.1
637.2	266.8
637.4	265.4
637.6	262.6
637.8	261.4
638.0	260.9
638.2	258.9
638.4	258.6
638.6	259.0
638.8	257.6
639.0	254.8
639.2	253.2
639.4	251.8
639.6	250.7
639.8	250.1
640.0	248.5
640.2	247.2
640.4	246.3
640.6	245.0
640.8	242.3
641.0	239.5
641.2	237.7
641.4	236.8
641.6	234.9
641.8	233.8
642.0	231.5
642.2	230.8
642.4	230.7
642.6	229.7
642.8	228.2
643.0	226.1
643.2	223.8
643.4	222.4
643.6	221.1
643.8	219.1
644.0	218.8
644.2	217.4
644.4	217.4
644.6	215.9
644.8	213.9
645.0	212.0
645.2	210.6
645.4	210.3
645.6	208.5
645.8	206.7
646.0	206.5
646.2	205.2
646.4	202.9
646.6	201.5
646.8	198.6
647.0	198.2
647.2	199.4
647.4	198.4
647.6	195.9
647.8	194.6
648.0	192.9
648.2	192.9
648.4	193.2
648.6	191.5
648.8	189.7
649.0	187.7
649.2	185.3
649.4	184.5
649.6	184.1
649.8	182.7
650.0	182.2
650.2	181.0
650.4	180.2
650.6	178.2
650.8	177.0
651.0	173.8
651.2	172.7
651.4	172.0
651.6	173.0
651.8	172.5
652.0	172.2
652.2	170.3
652.4	170.2
652.6	168.3
652.8	167.5
653.0	166.3
653.2	163.5
653.4	162.3
653.6	161.5
653.8	161.6
654.0	161.5
654.2	161.1
654.4	158.8
654.6	159.1
654.8	158.1
655.0	156.9
655.2	155.4
655.4	153.5
655.6	151.5
655.8	151.4
656.0	150.5
656.2	150.4
656.4	151.0
656.6	150.1
656.8	147.7
657.0	146.8
657.2	145.6
657.4	145.8
657.6	145.4
657.8	143.7
658.0	142.0
658.2	141.9
658.4	141.0
658.6	139.8
658.8	138.2
659.0	137.0
659.2	136.6
659.4	136.3
659.6	136.4
659.8	135.4
660.0	135.7
660.2	134.1
660.4	132.8
660.6	130.3
660.8	128.3
661.0	126.6
661.2	126.3
661.4	125.2
661.6	125.1
661.8	123.9
662.0	123.6
662.2	123.6
662.4	123.8
662.6	124.0
662.8	123.5
663.0	121.5
663.2	120.5
663.4	119.3
663.6	119.1
663.8	119.0
664.0	118.2
664.2	116.9
664.4	116.1
664.6	115.5
664.8	114.2
665.0	113.2
665.2	112.7
665.4	111.9
665.6	111.1
665.8	110.9
666.0	109.6
666.2	110.0
666.4	110.0
666.6	109.1
666.8	108.0
667.0	106.6
667.2	104.5
667.4	103.9
667.6	103.6
667.8	103.3
668.0	102.6
668.2	102.0
668.4	101.7
668.6	100.5
668.8	100.4
669.0	99.31
669.2	98.84
669.4	98.08
669.6	98.08
669.8	97.31
670.0	96.42
670.2	95.51
670.4	96.44
670.6	96.09
670.8	95.42
671.0	94.10
671.2	92.68
671.4	91.48
671.6	92.07
671.8	91.97
672.0	91.43
672.2	90.79
672.4	90.32
672.6	88.32
672.8	87.71
673.0	86.98
673.2	87.14
673.4	87.47
673.6	87.43
673.8	84.97
674.0	83.88
674.2	83.71
674.4	84.66
674.6	85.31
674.8	84.69
675.0	82.29
675.2	80.75
675.4	80.68
675.6	80.87
675.8	81.06
676.0	80.45
676.2	79.42
676.4	78.40
676.6	78.07
676.8	77.34
677.0	76.64
677.2	76.22
677.4	75.66
677.6	74.95
677.8	74.27
678.0	73.77
678.2	73.00
678.4	72.72
678.6	73.30
678.8	73.33
679.0	72.38
679.2	72.21
679.4	71.09
679.6	70.38
679.8	70.59
680.0	69.78
680.2	68.64
680.4	67.99
680.6	67.26
680.8	66.50
681.0	66.10
681.2	66.20
681.4	66.87
681.6	67.44
681.8	67.64
682.0	66.88
682.2	66.35
682.4	65.12
682.6	64.51
682.8	63.61
683.0	62.95
683.2	62.44
683.4	62.16
683.6	62.00
683.8	62.27
684.0	61.20
684.2	60.75
684.4	59.76
684.6	58.79
684.8	58.53
685.0	58.49
685.2	58.25
685.4	57.44
685.6	56.90
685.8	56.40
686.0	55.51
686.2	55.48
686.4	55.77
686.6	55.52
686.8	55.84
687.0	55.59
687.2	54.36
687.4	53.53
687.6	52.74
687.8	52.90
688.0	53.57
688.2	54.03
688.4	53.96
688.6	53.38
688.8	52.35
689.0	51.48
689.2	51.16
689.4	51.27
689.6	51.83
689.8	50.75
690.0	49.73
690.2	49.75
690.4	49.81
690.6	49.68
690.8	49.39
691.0	47.28
691.2	46.39
691.4	47.22
691.6	47.97
691.8	47.35
692.0	47.17
692.2	46.25
692.4	45.59
692.6	45.76
692.8	45.78
693.0	45.14
693.2	45.47
693.4	45.30
693.6	44.89
693.8	44.37
694.0	43.94
694.2	43.52
694.4	43.51
694.6	42.72
694.8	42.48
695.0	42.49
695.2	42.79
695.4	43.16
695.6	43.52
695.8	42.59
696.0	42.94
696.2	42.43
696.4	41.80
696.6	41.29
696.8	40.69
697.0	40.46
697.2	41.24
697.4	41.22
697.6	40.97
697.8	40.12
698.0	39.64
698.2	39.31
698.4	39.24
698.6	39.01
698.8	38.70
699.0	38.59
699.2	38.95
699.4	38.85
699.6	39.08
699.8	38.45
700.0	37.68
700.2	37.45
700.4	36.59
700.6	35.92
700.8	35.68
701.0	35.14
701.2	34.82
701.4	34.75
701.6	34.24
701.8	34.09
702.0	34.75
702.2	34.67
702.4	34.60
702.6	34.88
702.8	35.08
703.0	34.67
703.2	34.69
703.4	33.80
703.6	33.22
703.8	32.70
704.0	32.95
704.2	33.14
704.4	33.73
704.6	34.12
704.8	33.98
705.0	32.99
705.2	32.62
705.4	32.19
705.6	32.49
705.8	32.43
706.0	31.44
706.2	31.48
706.4	31.19
706.6	30.83
706.8	30.67
707.0	30.19
707.2	29.62
707.4	29.86
707.6	29.88
707.8	29.95
708.0	30.05
708.2	29.45
708.4	29.58
708.6	29.74
708.8	29.95
709.0	29.52
709.2	29.29
709.4	28.43
709.6	28.45
709.8	28.38
710.0	27.57
710.2	27.00
710.4	27.36
710.6	27.54
710.8	27.65
711.0	27.62
711.2	27.01
711.4	26.73
711.6	26.78
711.8	26.51
712.0	26.19
712.2	26.57
712.4	26.73
712.6	26.36
712.8	26.23
713.0	26.12
713.2	25.79
713.4	25.43
713.6	24.97
713.8	24.40
714.0	24.56
714.2	24.95
714.4	24.99
714.6	24.92
714.8	25.14
715.0	24.69
715.2	24.70
715.4	24.46
715.6	23.96
715.8	23.54
716.0	23.32
716.2	22.70
716.4	22.49
716.6	22.08
716.8	22.36
717.0	22.46
717.2	22.40
717.4	22.74
717.6	22.53
717.8	22.53
718.0	22.66
718.2	22.18
718.4	21.75
718.6	21.56
718.8	21.20
719.0	21.26
719.2	21.56
719.4	21.61
719.6	21.15
719.8	20.76
720.0	20.32
720.2	20.20
720.4	20.45
720.6	20.53
720.8	19.84
721.0	19.89
721.2	20.01
721.4	20.16
721.6	20.25
721.8	19.91
722.0	19.55
722.2	19.35
722.4	19.24
722.6	18.87
722.8	18.88
723.0	18.34
723.2	18.01
723.4	17.59
723.6	17.53
723.8	17.24
724.0	17.55
724.2	18.29
724.4	18.22
724.6	18.18
724.8	17.96
725.0	17.25
725.2	17.18
725.4	17.49
725.6	17.33
725.8	16.98
726.0	16.56
726.2	16.63
726.4	16.57
726.6	16.53
726.8	16.40
727.0	15.87
727.2	15.64
727.4	15.74
727.6	15.19
727.8	15.17
728.0	15.34
728.2	15.54
728.4	15.84
728.6	15.67
728.8	15.36
729.0	14.83
729.2	14.64
729.4	14.46
729.6	14.51
729.8	14.55
730.0	14.68
730.2	14.91
730.4	14.66
730.6	14.57
730.8	14.14
731.0	14.37
731.2	14.45
731.4	14.85
731.6	14.47
731.8	14.23
732.0	13.57
732.2	13.68
732.4	13.09
732.6	12.72
732.8	12.49
733.0	12.45
733.2	12.71
733.4	13.40
733.6	13.45
733.8	13.56
734.0	13.28
734.2	12.97
734.4	12.50
734.6	12.28
734.8	11.90
735.0	12.20
735.2	12.11
735.4	12.69
735.6	12.52
735.8	12.33
736.0	12.12
736.2	12.18
736.4	11.67
736.6	11.73
736.8	11.33
737.0	10.97
737.2	11.10
737.4	11.07
737.6	11.17
737.8	11.36
738.0	11.28
738.2	11.35
738.4	11.19
738.6	10.72
738.8	10.25
739.0	10.14
739.2	9.988
739.4	10.51
739.6	10.51
739.8	10.39
740.0	10.13
740.2	10.12
740.4	10.09
740.6	10.29
740.8	10.08
741.0	9.900
741.2	9.688
741.4	9.165
741.6	9.115
741.8	9.333
742.0	9.458
742.2	9.630
742.4	9.730
742.6	9.556
742.8	9.425
743.0	9.161
743.2	8.935
743.4	8.929
743.6	9.156
743.8	9.356
744.0	9.253
744.2	9.463
744.4	9.469
744.6	9.450
744.8	9.364
745.0	9.097
745.2	8.847
745.4	8.839
745.6	8.661
745.8	8.538
746.0	8.593
746.2	8.655
746.4	8.837
746.6	8.732
746.8	8.405
747.0	8.162
747.2	8.167
747.4	8.076
747.6	8.199
747.8	8.142
748.0	7.955
748.2	7.955
748.4	8.267
748.6	8.341
748.8	8.465
749.0	8.246
749.2	8.042
749.4	7.960
749.6	8.065
749.8	7.939
750.0	7.721
750.2	7.485
750.4	7.390
750.6	7.209
750.8	7.656
751.0	7.638
751.2	7.504
751.4	7.484
751.6	7.339
751.8	7.151
752.0	7.398
752.2	7.161
752.4	7.152
752.6	6.952
752.8	6.599
753.0	6.597
753.2	6.456
753.4	6.532
753.6	6.619
753.8	6.626
754.0	6.621
754.2	6.854
754.4	6.913
754.6	6.997
754.8	7.038
755.0	6.963
755.2	6.470
755.4	6.219
755.6	6.005
755.8	5.984
756.0	6.224
756.2	6.435
756.4	6.180
756.6	6.337
756.8	6.218
757.0	6.257
757.2	5.899
757.4	5.867
757.6	6.043
757.8	6.318
758.0	6.285
758.2	6.090
758.4	5.593
758.6	5.485
758.8	5.711
759.0	5.715
759.2	5.474
759.4	5.356
759.6	5.454
759.8	5.914
760.0	6.272
760.2	6.251
760.4	5.820
760.6	5.513
760.8	5.084
761.0	5.081
761.2	4.903
761.4	5.080
761.6	4.912
761.8	4.934
762.0	4.871
762.2	5.100
762.4	4.934
762.6	5.163
762.8	4.923
763.0	4.764
763.2	4.806
763.4	4.950
763.6	5.022
763.8	5.235
764.0	5.217
764.2	5.136
764.4	5.034
764.6	4.916
764.8	4.896
765.0	4.672
765.2	4.571
765.4	4.498
765.6	4.371
765.8	4.389
766.0	4.510
766.2	4.553
766.4	4.698
766.6	4.864
766.8	4.826
767.0	4.625
767.2	4.464
767.4	4.366
767.6	4.115
767.8	4.250
768.0	4.340
768.2	4.600
768.4	4.682
768.6	4.675
768.8	4.525
769.0	4.644
769.2	4.556
769.4	4.623
769.6	4.614
769.8	4.506
770.0	4.403
770.2	4.221
770.4	4.031
770.6	3.818
770.8	3.800
771.0	3.791
771.2	3.878
771.4	3.923
771.6	4.095
771.8	3.758
772.0	3.834
772.2	3.651
772.4	3.771
772.6	3.866
772.8	3.873
773.0	3.673
773.2	3.680
773.4	3.854
773.6	4.037
773.8	3.951
774.0	3.688
774.2	3.598
774.4	3.509
774.6	3.690
774.8	3.548
775.0	3.464
775.2	3.265
775.4	3.257
775.6	3.355
775.8	3.444
776.0	3.562
776.2	3.765
776.4	3.786
776.6	3.548
776.8	3.368
777.0	3.288
777.2	3.275
777.4	3.377
777.6	3.251
777.8	3.253
778.0	3.328
778.2	3.430
778.4	3.465
778.6	3.734
778.8	3.744
779.0	3.751
779.2	3.813
779.4	3.761
779.6	3.466
779.8	3.390
780.0	3.324
780.2	3.123
780.4	3.442
780.6	3.600
780.8	3.693
781.0	3.674
781.2	3.479
781.4	3.157
781.6	3.062
781.8	3.183
782.0	3.227
782.2	3.349
782.4	3.319
782.6	3.270
782.8	3.089
783.0	3.159
783.2	2.950
783.4	2.936
783.6	3.002
783.8	3.250
784.0	3.351
784.2	3.349
784.4	3.312
784.6	3.257
784.8	3.256
785.0	3.200
785.2	3.069
785.4	2.903
785.6	3.075
785.8	3.115
786.0	3.155
786.2	3.038
786.4	2.824
786.6	2.663
786.8	2.822
787.0	2.858
787.2	3.046
787.4	2.997
787.6	3.012
787.8	3.059
788.0	3.217
788.2	3.093
788.4	2.956
788.6	2.835
788.8	2.817
789.0	2.953
789.2	3.042
789.4	2.786
789.6	2.713
789.8	2.764
790.0	2.685
790.2	2.828
790.4	2.793
790.6	2.729
790.8	2.707
791.0	2.768
791.2	2.893
791.4	3.094
791.6	3.213
791.8	3.322
792.0	3.035
792.2	2.975
792.4	2.913
792.6	2.885
792.8	2.970
793.0	3.049
793.2	2.910
793.4	3.028
793.6	2.958
793.8	2.984
794.0	2.749
794.2	2.724
794.4	2.673
794.6	2.986
794.8	3.007
795.0	3.121
795.2	2.908
795.4	2.655
795.6	2.568
795.8	2.861
796.0	2.764
796.2	2.786
796.4	2.822
796.6	2.546
796.8	2.534
797.0	2.646
797.2	2.524
797.4	2.664
797.6	2.798
797.8	2.733
798.0	2.815
798.2	2.711
798.4	2.728
798.6	2.822
798.8	2.689
799.0	2.636
799.2	2.775
799.4	2.781
799.6	3.030
799.8	3.086
800.0	2.723

