Sample:	'20211010A(EM)
File name:	B-CDs 2.FDS
Run date:	'09:38:49, 06/11/2023
Operator:	Administrator
Comment:	'

Instrument
Model:	F-4700 FL Spectrophotometer
Serial number:	2019-001
ROM Version:	5J24010 00

Instrument parameters
Measurement type:	Wavelength scan
Scan mode:	Emission
Data mode:	Fluorescence
EX WL:	350.0 nm
EM  Start WL:	370.0 nm
EM  End WL:	720.0 nm
Scan speed:	1200 nm/min
Delay:	0.0 s
EX Slit:	10.0 nm
EM Slit:	10.0 nm
PMT Voltage:	300 V
Response:	0.002 s
Corrected spectra:	Off
Shutter control:	On

Processing performed
Savitsky-Golay smoothed
Smoothing order:	3
Number of points:	7
Number of times:	1

Peak integration
Integration method:	Rectangular
Sensitivity:	1
Threshold:	1.000

Peaks
No.	Start(nm)	Apex(nm)	End(nm)	Height(Data)	Valley(nm)	Valley(Data)
1	370.0	445.8	446.8	1735	446.8	1732
2	446.8	447.6	449.2	1736	449.2	1733
3	449.2	450.6	720.0	1736	720.0	1.170

Data points
nm	Data
370.0	4.162
370.2	4.334
370.4	4.447
370.6	4.529
370.8	4.631
371.0	4.750
371.2	4.824
371.4	5.004
371.6	5.142
371.8	5.285
372.0	5.422
372.2	5.540
372.4	5.679
372.6	5.849
372.8	5.980
373.0	6.098
373.2	6.162
373.4	6.267
373.6	6.434
373.8	6.617
374.0	6.841
374.2	7.066
374.4	7.220
374.6	7.424
374.8	7.650
375.0	7.848
375.2	8.090
375.4	8.318
375.6	8.494
375.8	8.737
376.0	8.883
376.2	9.052
376.4	9.280
376.6	9.534
376.8	9.827
377.0	10.14
377.2	10.32
377.4	10.53
377.6	10.80
377.8	11.17
378.0	11.59
378.2	11.89
378.4	12.17
378.6	12.45
378.8	12.77
379.0	13.21
379.2	13.60
379.4	13.93
379.6	14.30
379.8	14.72
380.0	15.10
380.2	15.57
380.4	16.06
380.6	16.48
380.8	16.95
381.0	17.46
381.2	17.81
381.4	18.29
381.6	18.78
381.8	19.26
382.0	19.90
382.2	20.55
382.4	21.02
382.6	21.55
382.8	22.04
383.0	22.65
383.2	23.30
383.4	24.02
383.6	24.67
383.8	25.41
384.0	26.19
384.2	26.99
384.4	27.71
384.6	28.51
384.8	29.32
385.0	30.10
385.2	31.00
385.4	31.84
385.6	32.69
385.8	33.61
386.0	34.48
386.2	35.29
386.4	36.47
386.6	37.59
386.8	38.72
387.0	39.85
387.2	40.73
387.4	41.81
387.6	43.02
387.8	44.32
388.0	45.65
388.2	46.88
388.4	47.95
388.6	49.16
388.8	50.30
389.0	51.74
389.2	53.16
389.4	54.59
389.6	56.13
389.8	57.65
390.0	59.28
390.2	60.95
390.4	62.67
390.6	64.10
390.8	65.86
391.0	67.67
391.2	69.45
391.4	71.29
391.6	73.21
391.8	74.76
392.0	76.76
392.2	78.85
392.4	81.00
392.6	83.19
392.8	85.41
393.0	87.42
393.2	89.64
393.4	91.92
393.6	94.10
393.8	96.61
394.0	99.17
394.2	101.8
394.4	104.4
394.6	107.0
394.8	109.4
395.0	112.0
395.2	114.7
395.4	117.7
395.6	120.9
395.8	124.3
396.0	127.6
396.2	131.0
396.4	133.8
396.6	136.5
396.8	139.5
397.0	142.8
397.2	146.3
397.4	150.2
397.6	153.9
397.8	157.5
398.0	161.1
398.2	164.7
398.4	168.0
398.6	171.9
398.8	175.8
399.0	180.2
399.2	184.7
399.4	189.2
399.6	193.6
399.8	198.3
400.0	202.5
400.2	207.5
400.4	212.3
400.6	217.4
400.8	222.2
401.0	227.0
401.2	231.5
401.4	236.7
401.6	241.8
401.8	247.3
402.0	252.7
402.2	258.2
402.4	263.3
402.6	268.8
402.8	274.0
403.0	279.1
403.2	284.5
403.4	290.3
403.6	296.3
403.8	302.6
404.0	308.7
404.2	314.6
404.4	321.1
404.6	327.4
404.8	333.9
405.0	341.1
405.2	348.0
405.4	355.1
405.6	361.9
405.8	368.3
406.0	375.0
406.2	381.9
406.4	388.3
406.6	396.1
406.8	403.3
407.0	410.9
407.2	417.8
407.4	424.4
407.6	430.8
407.8	438.7
408.0	446.4
408.2	454.8
408.4	462.7
408.6	470.2
408.8	477.6
409.0	486.1
409.2	494.2
409.4	502.9
409.6	511.5
409.8	519.3
410.0	527.4
410.2	536.9
410.4	545.4
410.6	554.0
410.8	562.0
411.0	570.1
411.2	578.6
411.4	588.1
411.6	597.2
411.8	606.3
412.0	615.0
412.2	624.2
412.4	632.4
412.6	640.8
412.8	649.1
413.0	657.9
413.2	667.5
413.4	677.7
413.6	687.5
413.8	696.8
414.0	705.6
414.2	714.7
414.4	723.8
414.6	733.6
414.8	743.2
415.0	753.0
415.2	763.0
415.4	773.0
415.6	782.3
415.8	792.3
416.0	801.2
416.2	811.2
416.4	821.6
416.6	832.0
416.8	842.4
417.0	852.3
417.2	861.3
417.4	870.5
417.6	879.3
417.8	888.1
418.0	896.5
418.2	905.7
418.4	914.2
418.6	923.5
418.8	932.8
419.0	942.7
419.2	952.8
419.4	964.9
419.6	975.7
419.8	986.2
420.0	996.3
420.2	1007
420.4	1016
420.6	1025
420.8	1034
421.0	1042
421.2	1051
421.4	1061
421.6	1070
421.8	1080
422.0	1089
422.2	1098
422.4	1107
422.6	1116
422.8	1124
423.0	1134
423.2	1144
423.4	1154
423.6	1164
423.8	1173
424.0	1182
424.2	1191
424.4	1201
424.6	1210
424.8	1219
425.0	1228
425.2	1236
425.4	1244
425.6	1252
425.8	1261
426.0	1271
426.2	1281
426.4	1290
426.6	1299
426.8	1306
427.0	1314
427.2	1323
427.4	1331
427.6	1338
427.8	1346
428.0	1353
428.2	1361
428.4	1369
428.6	1377
428.8	1386
429.0	1395
429.2	1402
429.4	1409
429.6	1415
429.8	1422
430.0	1428
430.2	1436
430.4	1442
430.6	1451
430.8	1458
431.0	1467
431.2	1475
431.4	1483
431.6	1489
431.8	1495
432.0	1499
432.2	1505
432.4	1511
432.6	1518
432.8	1522
433.0	1529
433.2	1534
433.4	1540
433.6	1547
433.8	1553
434.0	1557
434.2	1561
434.4	1566
434.6	1572
434.8	1578
435.0	1585
435.2	1590
435.4	1595
435.6	1600
435.8	1603
436.0	1606
436.2	1612
436.4	1618
436.6	1623
436.8	1628
437.0	1632
437.2	1637
437.4	1641
437.6	1645
437.8	1647
438.0	1651
438.2	1657
438.4	1660
438.6	1663
438.8	1666
439.0	1668
439.2	1670
439.4	1672
439.6	1673
439.8	1677
440.0	1680
440.2	1684
440.4	1688
440.6	1692
440.8	1694
441.0	1698
441.2	1699
441.4	1701
441.6	1703
441.8	1705
442.0	1705
442.2	1708
442.4	1709
442.6	1711
442.8	1713
443.0	1713
443.2	1714
443.4	1717
443.6	1719
443.8	1722
444.0	1724
444.2	1725
444.4	1726
444.6	1728
444.8	1728
445.0	1728
445.2	1730
445.4	1732
445.6	1732
445.8	1735
446.0	1734
446.2	1734
446.4	1734
446.6	1733
446.8	1732
447.0	1734
447.2	1733
447.4	1735
447.6	1736
447.8	1736
448.0	1736
448.2	1735
448.4	1735
448.6	1736
448.8	1736
449.0	1735
449.2	1733
449.4	1734
449.6	1735
449.8	1735
450.0	1734
450.2	1734
450.4	1735
450.6	1736
450.8	1736
451.0	1735
451.2	1731
451.4	1730
451.6	1729
451.8	1727
452.0	1726
452.2	1726
452.4	1726
452.6	1727
452.8	1725
453.0	1723
453.2	1721
453.4	1720
453.6	1720
453.8	1720
454.0	1718
454.2	1716
454.4	1716
454.6	1715
454.8	1713
455.0	1710
455.2	1707
455.4	1705
455.6	1704
455.8	1703
456.0	1702
456.2	1700
456.4	1699
456.6	1697
456.8	1695
457.0	1693
457.2	1690
457.4	1687
457.6	1686
457.8	1684
458.0	1683
458.2	1682
458.4	1680
458.6	1677
458.8	1675
459.0	1673
459.2	1672
459.4	1669
459.6	1667
459.8	1664
460.0	1660
460.2	1658
460.4	1654
460.6	1650
460.8	1647
461.0	1645
461.2	1643
461.4	1639
461.6	1635
461.8	1632
462.0	1628
462.2	1626
462.4	1623
462.6	1622
462.8	1621
463.0	1618
463.2	1615
463.4	1612
463.6	1610
463.8	1608
464.0	1606
464.2	1600
464.4	1595
464.6	1590
464.8	1587
465.0	1586
465.2	1584
465.4	1579
465.6	1575
465.8	1569
466.0	1565
466.2	1562
466.4	1559
466.6	1557
466.8	1555
467.0	1552
467.2	1548
467.4	1545
467.6	1540
467.8	1537
468.0	1533
468.2	1528
468.4	1523
468.6	1518
468.8	1514
469.0	1512
469.2	1508
469.4	1504
469.6	1499
469.8	1496
470.0	1491
470.2	1489
470.4	1486
470.6	1483
470.8	1479
471.0	1477
471.2	1472
471.4	1468
471.6	1464
471.8	1460
472.0	1455
472.2	1449
472.4	1444
472.6	1439
472.8	1435
473.0	1432
473.2	1428
473.4	1423
473.6	1420
473.8	1416
474.0	1412
474.2	1407
474.4	1403
474.6	1398
474.8	1395
475.0	1393
475.2	1389
475.4	1384
475.6	1381
475.8	1375
476.0	1372
476.2	1369
476.4	1364
476.6	1360
476.8	1357
477.0	1353
477.2	1349
477.4	1345
477.6	1340
477.8	1334
478.0	1329
478.2	1327
478.4	1325
478.6	1323
478.8	1319
479.0	1314
479.2	1309
479.4	1304
479.6	1301
479.8	1299
480.0	1296
480.2	1292
480.4	1288
480.6	1283
480.8	1278
481.0	1273
481.2	1270
481.4	1268
481.6	1265
481.8	1263
482.0	1260
482.2	1255
482.4	1251
482.6	1248
482.8	1244
483.0	1239
483.2	1237
483.4	1233
483.6	1229
483.8	1226
484.0	1222
484.2	1218
484.4	1216
484.6	1212
484.8	1210
485.0	1208
485.2	1203
485.4	1199
485.6	1194
485.8	1188
486.0	1185
486.2	1182
486.4	1177
486.6	1174
486.8	1171
487.0	1167
487.2	1164
487.4	1160
487.6	1157
487.8	1155
488.0	1151
488.2	1146
488.4	1143
488.6	1140
488.8	1137
489.0	1135
489.2	1132
489.4	1128
489.6	1123
489.8	1119
490.0	1114
490.2	1110
490.4	1106
490.6	1103
490.8	1101
491.0	1098
491.2	1092
491.4	1087
491.6	1084
491.8	1081
492.0	1079
492.2	1076
492.4	1071
492.6	1066
492.8	1063
493.0	1059
493.2	1056
493.4	1052
493.6	1049
493.8	1044
494.0	1040
494.2	1036
494.4	1032
494.6	1029
494.8	1026
495.0	1022
495.2	1017
495.4	1013
495.6	1008
495.8	1004
496.0	1001
496.2	997.3
496.4	994.1
496.6	991.4
496.8	988.4
497.0	983.6
497.2	979.5
497.4	975.5
497.6	971.0
497.8	968.0
498.0	965.1
498.2	959.8
498.4	955.2
498.6	951.6
498.8	946.6
499.0	943.2
499.2	939.1
499.4	935.2
499.6	931.9
499.8	928.0
500.0	924.3
500.2	921.2
500.4	916.6
500.6	914.0
500.8	910.3
501.0	905.5
501.2	903.0
501.4	899.5
501.6	894.9
501.8	891.5
502.0	886.9
502.2	881.4
502.4	877.3
502.6	874.2
502.8	870.9
503.0	867.7
503.2	865.4
503.4	860.6
503.6	855.4
503.8	850.9
504.0	846.8
504.2	842.9
504.4	840.0
504.6	835.9
504.8	832.0
505.0	828.5
505.2	825.3
505.4	821.2
505.6	816.9
505.8	812.1
506.0	807.9
506.2	804.4
506.4	801.4
506.6	797.1
506.8	793.1
507.0	789.2
507.2	785.1
507.4	781.4
507.6	779.0
507.8	774.6
508.0	770.9
508.2	767.5
508.4	763.9
508.6	760.3
508.8	757.5
509.0	753.3
509.2	749.1
509.4	744.2
509.6	740.8
509.8	737.8
510.0	735.7
510.2	732.4
510.4	730.0
510.6	726.3
510.8	722.5
511.0	717.7
511.2	713.0
511.4	707.7
511.6	704.6
511.8	701.7
512.0	698.4
512.2	694.8
512.4	691.1
512.6	687.7
512.8	683.6
513.0	680.5
513.2	678.3
513.4	676.1
513.6	672.3
513.8	668.7
514.0	664.7
514.2	660.6
514.4	657.3
514.6	654.5
514.8	649.8
515.0	645.9
515.2	643.7
515.4	640.9
515.6	637.6
515.8	634.3
516.0	631.0
516.2	627.5
516.4	624.7
516.6	620.8
516.8	616.9
517.0	613.0
517.2	610.0
517.4	606.3
517.6	603.2
517.8	600.3
518.0	597.7
518.2	595.6
518.4	592.9
518.6	589.4
518.8	585.6
519.0	582.0
519.2	578.3
519.4	575.4
519.6	572.8
519.8	570.3
520.0	567.3
520.2	564.1
520.4	560.4
520.6	556.7
520.8	553.5
521.0	550.4
521.2	547.9
521.4	546.1
521.6	543.5
521.8	540.6
522.0	537.3
522.2	533.6
522.4	530.3
522.6	527.1
522.8	524.1
523.0	521.3
523.2	518.6
523.4	515.9
523.6	513.1
523.8	509.6
524.0	506.6
524.2	504.0
524.4	501.4
524.6	498.9
524.8	496.0
525.0	492.3
525.2	489.0
525.4	486.7
525.6	483.8
525.8	481.2
526.0	478.4
526.2	475.7
526.4	472.6
526.6	469.6
526.8	466.4
527.0	463.6
527.2	461.4
527.4	459.5
527.6	457.4
527.8	455.4
528.0	453.1
528.2	450.7
528.4	448.5
528.6	445.4
528.8	442.5
529.0	439.7
529.2	437.2
529.4	434.7
529.6	432.6
529.8	430.2
530.0	427.8
530.2	425.5
530.4	423.0
530.6	420.5
530.8	418.1
531.0	415.1
531.2	412.4
531.4	410.4
531.6	407.6
531.8	405.6
532.0	403.6
532.2	400.9
532.4	399.0
532.6	397.0
532.8	394.7
533.0	391.9
533.2	389.2
533.4	386.9
533.6	385.0
533.8	382.8
534.0	380.8
534.2	378.1
534.4	376.1
534.6	374.2
534.8	372.0
535.0	369.7
535.2	367.4
535.4	365.0
535.6	363.3
535.8	361.2
536.0	359.2
536.2	357.1
536.4	354.7
536.6	352.7
536.8	350.9
537.0	349.1
537.2	346.7
537.4	344.3
537.6	341.5
537.8	339.0
538.0	336.7
538.2	334.8
538.4	333.0
538.6	331.6
538.8	329.9
539.0	328.0
539.2	325.7
539.4	323.2
539.6	320.9
539.8	318.5
540.0	316.9
540.2	315.2
540.4	313.5
540.6	311.6
540.8	309.8
541.0	308.0
541.2	306.3
541.4	304.1
541.6	302.1
541.8	300.3
542.0	299.0
542.2	297.4
542.4	295.5
542.6	293.4
542.8	291.7
543.0	290.4
543.2	288.5
543.4	286.8
543.6	285.0
543.8	283.3
544.0	282.2
544.2	280.7
544.4	278.7
544.6	276.5
544.8	274.5
545.0	272.6
545.2	271.2
545.4	269.3
545.6	268.1
545.8	266.4
546.0	265.1
546.2	263.5
546.4	261.8
546.6	260.1
546.8	258.6
547.0	257.2
547.2	255.7
547.4	254.2
547.6	252.2
547.8	250.5
548.0	248.9
548.2	247.5
548.4	246.3
548.6	245.1
548.8	243.2
549.0	241.5
549.2	239.7
549.4	237.7
549.6	236.6
549.8	235.3
550.0	234.3
550.2	233.1
550.4	231.6
550.6	229.8
550.8	228.1
551.0	226.4
551.2	225.4
551.4	223.9
551.6	222.7
551.8	221.5
552.0	220.0
552.2	218.7
552.4	217.8
552.6	216.6
552.8	215.1
553.0	213.7
553.2	212.0
553.4	210.5
553.6	209.4
553.8	207.9
554.0	206.7
554.2	205.4
554.4	204.3
554.6	203.2
554.8	202.4
555.0	201.0
555.2	200.0
555.4	198.4
555.6	196.9
555.8	195.5
556.0	194.4
556.2	192.9
556.4	191.7
556.6	190.6
556.8	189.6
557.0	188.4
557.2	187.3
557.4	186.2
557.6	185.2
557.8	184.5
558.0	183.4
558.2	181.8
558.4	180.4
558.6	179.4
558.8	178.6
559.0	177.5
559.2	176.5
559.4	175.3
559.6	174.1
559.8	173.0
560.0	172.0
560.2	170.6
560.4	169.6
560.6	168.6
560.8	167.8
561.0	167.0
561.2	166.2
561.4	164.9
561.6	163.7
561.8	162.3
562.0	161.4
562.2	160.7
562.4	159.5
562.6	158.5
562.8	157.3
563.0	156.2
563.2	155.5
563.4	154.6
563.6	153.3
563.8	152.2
564.0	151.1
564.2	149.9
564.4	149.3
564.6	148.6
564.8	147.7
565.0	146.6
565.2	145.6
565.4	144.6
565.6	143.7
565.8	142.9
566.0	142.1
566.2	141.2
566.4	140.3
566.6	139.6
566.8	138.8
567.0	137.8
567.2	136.9
567.4	136.0
567.6	135.3
567.8	134.6
568.0	133.9
568.2	133.0
568.4	131.9
568.6	130.8
568.8	129.6
569.0	128.9
569.2	128.1
569.4	127.5
569.6	126.9
569.8	126.2
570.0	125.2
570.2	124.4
570.4	123.7
570.6	122.8
570.8	122.1
571.0	121.4
571.2	120.5
571.4	119.6
571.6	119.0
571.8	117.8
572.0	117.1
572.2	116.4
572.4	115.7
572.6	115.2
572.8	114.9
573.0	114.1
573.2	113.6
573.4	112.8
573.6	111.7
573.8	110.9
574.0	110.1
574.2	109.3
574.4	108.8
574.6	108.1
574.8	107.4
575.0	106.8
575.2	106.2
575.4	105.6
575.6	105.2
575.8	104.3
576.0	103.5
576.2	102.8
576.4	102.0
576.6	101.4
576.8	101.1
577.0	100.3
577.2	99.74
577.4	99.38
577.6	98.52
577.8	97.78
578.0	96.96
578.2	96.34
578.4	95.82
578.6	95.35
578.8	94.69
579.0	94.09
579.2	93.53
579.4	93.12
579.6	92.27
579.8	91.59
580.0	90.99
580.2	90.65
580.4	90.15
580.6	89.62
580.8	88.92
581.0	88.26
581.2	87.57
581.4	87.16
581.6	86.48
581.8	85.92
582.0	85.31
582.2	84.85
582.4	84.24
582.6	83.84
582.8	83.46
583.0	82.95
583.2	82.23
583.4	81.85
583.6	81.23
583.8	80.76
584.0	80.24
584.2	79.88
584.4	79.27
584.6	78.96
584.8	78.64
585.0	78.30
585.2	77.63
585.4	76.89
585.6	76.19
585.8	75.63
586.0	75.24
586.2	75.15
586.4	74.62
586.6	73.98
586.8	73.37
587.0	72.84
587.2	72.51
587.4	72.30
587.6	71.82
587.8	71.44
588.0	70.80
588.2	70.29
588.4	69.71
588.6	69.19
588.8	68.74
589.0	68.51
589.2	67.96
589.4	67.74
589.6	67.40
589.8	67.16
590.0	66.80
590.2	66.23
590.4	65.47
590.6	65.05
590.8	64.78
591.0	64.43
591.2	63.93
591.4	63.28
591.6	62.82
591.8	62.55
592.0	62.33
592.2	62.07
592.4	61.57
592.6	61.31
592.8	60.80
593.0	60.35
593.2	60.07
593.4	59.83
593.6	59.36
593.8	59.06
594.0	58.40
594.2	57.91
594.4	57.71
594.6	57.37
594.8	57.14
595.0	56.80
595.2	56.48
595.4	56.12
595.6	55.64
595.8	55.20
596.0	55.02
596.2	54.68
596.4	54.40
596.6	54.00
596.8	53.51
597.0	53.26
597.2	52.96
597.4	52.57
597.6	52.21
597.8	51.93
598.0	51.69
598.2	51.51
598.4	51.23
598.6	50.82
598.8	50.47
599.0	50.03
599.2	49.79
599.4	49.49
599.6	49.15
599.8	48.76
600.0	48.43
600.2	48.04
600.4	47.79
600.6	47.62
600.8	47.21
601.0	46.96
601.2	46.72
601.4	46.45
601.6	46.14
601.8	46.01
602.0	45.67
602.2	45.51
602.4	45.13
602.6	44.80
602.8	44.42
603.0	44.05
603.2	43.85
603.4	43.65
603.6	43.31
603.8	43.06
604.0	42.75
604.2	42.35
604.4	42.27
604.6	42.05
604.8	41.74
605.0	41.37
605.2	41.04
605.4	40.62
605.6	40.39
605.8	40.21
606.0	39.98
606.2	39.74
606.4	39.53
606.6	39.08
606.8	38.75
607.0	38.68
607.2	38.46
607.4	38.18
607.6	37.94
607.8	37.50
608.0	37.30
608.2	37.17
608.4	37.01
608.6	36.83
608.8	36.67
609.0	36.38
609.2	36.08
609.4	35.73
609.6	35.61
609.8	35.30
610.0	35.06
610.2	34.83
610.4	34.63
610.6	34.44
610.8	34.26
611.0	33.84
611.2	33.63
611.4	33.37
611.6	33.26
611.8	33.05
612.0	32.80
612.2	32.56
612.4	32.41
612.6	32.19
612.8	31.96
613.0	31.63
613.2	31.43
613.4	31.32
613.6	31.16
613.8	31.06
614.0	30.79
614.2	30.46
614.4	30.20
614.6	29.97
614.8	29.83
615.0	29.77
615.2	29.60
615.4	29.43
615.6	29.33
615.8	29.13
616.0	28.94
616.2	28.64
616.4	28.42
616.6	28.13
616.8	27.96
617.0	27.88
617.2	27.73
617.4	27.51
617.6	27.44
617.8	27.13
618.0	26.88
618.2	26.68
618.4	26.58
618.6	26.42
618.8	26.30
619.0	26.10
619.2	25.86
619.4	25.63
619.6	25.48
619.8	25.34
620.0	25.14
620.2	25.08
620.4	24.80
620.6	24.66
620.8	24.43
621.0	24.24
621.2	24.06
621.4	23.91
621.6	23.70
621.8	23.73
622.0	23.63
622.2	23.39
622.4	23.25
622.6	22.96
622.8	22.76
623.0	22.65
623.2	22.53
623.4	22.36
623.6	22.34
623.8	22.27
624.0	22.10
624.2	21.95
624.4	21.74
624.6	21.58
624.8	21.49
625.0	21.32
625.2	21.09
625.4	21.04
625.6	20.86
625.8	20.76
626.0	20.64
626.2	20.42
626.4	20.23
626.6	20.21
626.8	20.07
627.0	19.87
627.2	19.69
627.4	19.49
627.6	19.34
627.8	19.30
628.0	19.19
628.2	19.08
628.4	19.01
628.6	18.89
628.8	18.69
629.0	18.54
629.2	18.40
629.4	18.27
629.6	18.21
629.8	18.09
630.0	17.88
630.2	17.71
630.4	17.60
630.6	17.48
630.8	17.37
631.0	17.16
631.2	16.99
631.4	16.83
631.6	16.73
631.8	16.76
632.0	16.66
632.2	16.56
632.4	16.49
632.6	16.40
632.8	16.32
633.0	16.14
633.2	16.00
633.4	15.90
633.6	15.89
633.8	15.74
634.0	15.76
634.2	15.48
634.4	15.37
634.6	15.30
634.8	15.30
635.0	15.15
635.2	15.18
635.4	14.94
635.6	14.74
635.8	14.59
636.0	14.48
636.2	14.39
636.4	14.35
636.6	14.33
636.8	14.30
637.0	14.18
637.2	14.08
637.4	13.92
637.6	13.76
637.8	13.71
638.0	13.61
638.2	13.51
638.4	13.41
638.6	13.32
638.8	13.24
639.0	13.19
639.2	13.10
639.4	13.05
639.6	12.85
639.8	12.74
640.0	12.64
640.2	12.53
640.4	12.48
640.6	12.43
640.8	12.31
641.0	12.26
641.2	12.23
641.4	12.15
641.6	12.08
641.8	12.00
642.0	11.90
642.2	11.82
642.4	11.75
642.6	11.69
642.8	11.60
643.0	11.54
643.2	11.42
643.4	11.30
643.6	11.15
643.8	11.09
644.0	11.04
644.2	11.06
644.4	10.97
644.6	10.91
644.8	10.77
645.0	10.68
645.2	10.61
645.4	10.59
645.6	10.46
645.8	10.43
646.0	10.27
646.2	10.16
646.4	10.09
646.6	10.07
646.8	9.989
647.0	9.966
647.2	9.849
647.4	9.783
647.6	9.692
647.8	9.617
648.0	9.559
648.2	9.535
648.4	9.506
648.6	9.414
648.8	9.356
649.0	9.301
649.2	9.206
649.4	9.123
649.6	9.077
649.8	8.994
650.0	8.980
650.2	8.929
650.4	8.863
650.6	8.805
650.8	8.759
651.0	8.710
651.2	8.632
651.4	8.542
651.6	8.517
651.8	8.510
652.0	8.390
652.2	8.305
652.4	8.254
652.6	8.175
652.8	8.125
653.0	8.107
653.2	8.016
653.4	7.946
653.6	7.909
653.8	7.866
654.0	7.820
654.2	7.772
654.4	7.728
654.6	7.622
654.8	7.561
655.0	7.554
655.2	7.527
655.4	7.509
655.6	7.479
655.8	7.432
656.0	7.353
656.2	7.247
656.4	7.178
656.6	7.053
656.8	6.984
657.0	6.999
657.2	7.047
657.4	7.070
657.6	7.060
657.8	6.928
658.0	6.823
658.2	6.734
658.4	6.690
658.6	6.677
658.8	6.661
659.0	6.652
659.2	6.644
659.4	6.546
659.6	6.448
659.8	6.396
660.0	6.376
660.2	6.354
660.4	6.379
660.6	6.297
660.8	6.245
661.0	6.203
661.2	6.159
661.4	6.115
661.6	6.082
661.8	6.021
662.0	5.976
662.2	5.930
662.4	5.909
662.6	5.875
662.8	5.822
663.0	5.759
663.2	5.708
663.4	5.658
663.6	5.638
663.8	5.598
664.0	5.542
664.2	5.474
664.4	5.467
664.6	5.425
664.8	5.428
665.0	5.443
665.2	5.376
665.4	5.295
665.6	5.241
665.8	5.135
666.0	5.108
666.2	5.157
666.4	5.163
666.6	5.113
666.8	5.069
667.0	5.036
667.2	5.038
667.4	5.073
667.6	5.062
667.8	4.989
668.0	4.884
668.2	4.818
668.4	4.816
668.6	4.799
668.8	4.743
669.0	4.706
669.2	4.637
669.4	4.598
669.6	4.669
669.8	4.630
670.0	4.595
670.2	4.534
670.4	4.436
670.6	4.340
670.8	4.365
671.0	4.345
671.2	4.358
671.4	4.316
671.6	4.274
671.8	4.232
672.0	4.250
672.2	4.245
672.4	4.221
672.6	4.176
672.8	4.131
673.0	4.086
673.2	4.056
673.4	4.038
673.6	4.042
673.8	4.016
674.0	4.001
674.2	3.935
674.4	3.913
674.6	3.913
674.8	3.894
675.0	3.876
675.2	3.882
675.4	3.835
675.6	3.836
675.8	3.810
676.0	3.770
676.2	3.725
676.4	3.688
676.6	3.662
676.8	3.647
677.0	3.600
677.2	3.599
677.4	3.563
677.6	3.555
677.8	3.556
678.0	3.521
678.2	3.470
678.4	3.469
678.6	3.443
678.8	3.430
679.0	3.399
679.2	3.375
679.4	3.328
679.6	3.303
679.8	3.272
680.0	3.259
680.2	3.206
680.4	3.214
680.6	3.190
680.8	3.176
681.0	3.198
681.2	3.211
681.4	3.173
681.6	3.192
681.8	3.148
682.0	3.106
682.2	3.094
682.4	3.078
682.6	3.037
682.8	3.048
683.0	2.998
683.2	2.955
683.4	2.896
683.6	2.876
683.8	2.842
684.0	2.853
684.2	2.863
684.4	2.825
684.6	2.756
684.8	2.759
685.0	2.771
685.2	2.772
685.4	2.786
685.6	2.754
685.8	2.696
686.0	2.672
686.2	2.666
686.4	2.627
686.6	2.622
686.8	2.606
687.0	2.582
687.2	2.583
687.4	2.585
687.6	2.602
687.8	2.603
688.0	2.569
688.2	2.515
688.4	2.511
688.6	2.485
688.8	2.493
689.0	2.482
689.2	2.493
689.4	2.489
689.6	2.456
689.8	2.414
690.0	2.383
690.2	2.352
690.4	2.339
690.6	2.342
690.8	2.298
691.0	2.311
691.2	2.329
691.4	2.327
691.6	2.322
691.8	2.292
692.0	2.263
692.2	2.232
692.4	2.211
692.6	2.221
692.8	2.228
693.0	2.205
693.2	2.206
693.4	2.188
693.6	2.199
693.8	2.216
694.0	2.215
694.2	2.167
694.4	2.147
694.6	2.127
694.8	2.117
695.0	2.123
695.2	2.124
695.4	2.088
695.6	2.091
695.8	2.052
696.0	2.005
696.2	1.979
696.4	1.954
696.6	1.965
696.8	2.011
697.0	2.042
697.2	2.019
697.4	1.998
697.6	1.982
697.8	1.974
698.0	1.954
698.2	1.973
698.4	1.964
698.6	1.960
698.8	1.972
699.0	1.961
699.2	1.905
699.4	1.883
699.6	1.880
699.8	1.863
700.0	1.895
700.2	1.888
700.4	1.895
700.6	1.857
700.8	1.826
701.0	1.787
701.2	1.765
701.4	1.725
701.6	1.768
701.8	1.762
702.0	1.780
702.2	1.789
702.4	1.790
702.6	1.745
702.8	1.732
703.0	1.677
703.2	1.694
703.4	1.689
703.6	1.758
703.8	1.759
704.0	1.755
704.2	1.716
704.4	1.728
704.6	1.689
704.8	1.700
705.0	1.680
705.2	1.673
705.4	1.644
705.6	1.637
705.8	1.632
706.0	1.617
706.2	1.630
706.4	1.631
706.6	1.589
706.8	1.553
707.0	1.557
707.2	1.596
707.4	1.624
707.6	1.622
707.8	1.602
708.0	1.574
708.2	1.564
708.4	1.575
708.6	1.529
708.8	1.505
709.0	1.472
709.2	1.453
709.4	1.444
709.6	1.461
709.8	1.457
710.0	1.472
710.2	1.454
710.4	1.454
710.6	1.440
710.8	1.451
711.0	1.447
711.2	1.422
711.4	1.390
711.6	1.407
711.8	1.414
712.0	1.426
712.2	1.412
712.4	1.388
712.6	1.368
712.8	1.392
713.0	1.391
713.2	1.398
713.4	1.369
713.6	1.392
713.8	1.375
714.0	1.372
714.2	1.335
714.4	1.323
714.6	1.310
714.8	1.359
715.0	1.385
715.2	1.393
715.4	1.355
715.6	1.340
715.8	1.306
716.0	1.308
716.2	1.303
716.4	1.305
716.6	1.281
716.8	1.285
717.0	1.257
717.2	1.255
717.4	1.253
717.6	1.268
717.8	1.251
718.0	1.249
718.2	1.217
718.4	1.215
718.6	1.196
718.8	1.200
719.0	1.207
719.2	1.232
719.4	1.215
719.6	1.196
719.8	1.178
720.0	1.170

