Sample:	'20211010A(EM)
File name:	B-CDS.FDS
Run date:	'09:00:30, 06/08/2023
Operator:	Administrator
Comment:	'

Instrument
Model:	F-4700 FL Spectrophotometer
Serial number:	2019-001
ROM Version:	5J24010 00

Instrument parameters
Measurement type:	Wavelength scan
Scan mode:	Emission
Data mode:	Fluorescence
EX WL:	350.0 nm
EM  Start WL:	370.0 nm
EM  End WL:	680.0 nm
Scan speed:	1200 nm/min
Delay:	0.0 s
EX Slit:	10.0 nm
EM Slit:	10.0 nm
PMT Voltage:	550 V
Response:	0.002 s
Corrected spectra:	Off
Shutter control:	On

Processing performed
Savitsky-Golay smoothed
Smoothing order:	3
Number of points:	7
Number of times:	1

Peak integration
Integration method:	Rectangular
Sensitivity:	1
Threshold:	1.000

Peaks
No.	Start(nm)	Apex(nm)	End(nm)	Height(Data)	Valley(nm)	Valley(Data)
1	370.0	371.8	373.2	13.11	373.2	11.82
2	373.2	374.8	376.4	14.28	376.4	12.00
3	376.4	377.8	378.6	15.05	378.6	12.69
4	378.6	381.8	382.4	15.43	382.4	13.13
5	382.4	384.4	385.2	15.33	385.2	13.96
6	385.2	478.2	479.0	8489	479.0	8417
7	479.0	479.8	480.8	8485	480.8	8456
8	480.8	484.0	487.0	8545	487.0	8432
9	487.0	487.8	677.2	8470	677.2	80.90
10	677.2	678.0	680.0	86.37	680.0	76.07

Data points
nm	Data
370.0	12.47
370.2	12.00
370.4	11.89
370.6	11.98
370.8	11.96
371.0	12.10
371.2	12.20
371.4	12.46
371.6	12.55
371.8	13.11
372.0	12.61
372.2	12.65
372.4	12.75
372.6	12.73
372.8	12.63
373.0	12.46
373.2	11.82
373.4	12.52
373.6	12.80
373.8	12.48
374.0	12.17
374.2	12.57
374.4	13.16
374.6	14.26
374.8	14.28
375.0	13.87
375.2	12.89
375.4	12.93
375.6	12.67
375.8	13.15
376.0	13.13
376.2	12.79
376.4	12.00
376.6	12.06
376.8	12.44
377.0	12.94
377.2	13.86
377.4	13.93
377.6	14.59
377.8	15.05
378.0	14.71
378.2	13.79
378.4	13.22
378.6	12.69
378.8	13.44
379.0	13.84
379.2	14.24
379.4	14.27
379.6	13.70
379.8	13.61
380.0	13.83
380.2	13.70
380.4	14.45
380.6	14.53
380.8	13.83
381.0	13.75
381.2	14.11
381.4	14.33
381.6	15.20
381.8	15.43
382.0	14.07
382.2	13.46
382.4	13.13
382.6	13.71
382.8	14.14
383.0	14.08
383.2	13.61
383.4	13.14
383.6	13.36
383.8	14.78
384.0	15.06
384.2	15.00
384.4	15.33
384.6	14.72
384.8	14.52
385.0	14.52
385.2	13.96
385.4	14.29
385.6	15.11
385.8	15.43
386.0	15.94
386.2	15.74
386.4	15.64
386.6	15.97
386.8	15.87
387.0	15.54
387.2	15.91
387.4	15.71
387.6	15.84
387.8	16.03
388.0	15.84
388.2	16.16
388.4	16.89
388.6	16.91
388.8	16.98
389.0	16.62
389.2	16.16
389.4	16.55
389.6	16.76
389.8	16.70
390.0	17.32
390.2	17.30
390.4	17.72
390.6	18.93
390.8	19.53
391.0	19.62
391.2	19.31
391.4	18.58
391.6	18.91
391.8	20.67
392.0	21.59
392.2	22.02
392.4	20.25
392.6	20.40
392.8	20.58
393.0	22.21
393.2	22.95
393.4	23.13
393.6	22.28
393.8	23.54
394.0	23.69
394.2	25.04
394.4	25.45
394.6	24.52
394.8	24.60
395.0	25.84
395.2	26.11
395.4	27.14
395.6	27.60
395.8	27.03
396.0	27.36
396.2	27.86
396.4	28.30
396.6	29.98
396.8	30.88
397.0	32.74
397.2	34.32
397.4	35.85
397.6	37.17
397.8	37.87
398.0	37.16
398.2	37.88
398.4	38.97
398.6	41.11
398.8	42.12
399.0	42.67
399.2	43.22
399.4	45.37
399.6	47.63
399.8	49.46
400.0	52.22
400.2	54.46
400.4	55.66
400.6	59.06
400.8	61.20
401.0	63.16
401.2	65.23
401.4	67.26
401.6	69.12
401.8	71.39
402.0	73.33
402.2	77.03
402.4	79.64
402.6	82.83
402.8	87.56
403.0	91.37
403.2	94.04
403.4	98.22
403.6	103.1
403.8	109.2
404.0	116.0
404.2	119.0
404.4	120.0
404.6	122.6
404.8	127.4
405.0	134.9
405.2	143.0
405.4	148.6
405.6	153.6
405.8	159.3
406.0	164.9
406.2	171.2
406.4	178.2
406.6	185.0
406.8	193.3
407.0	199.6
407.2	209.0
407.4	218.8
407.6	228.5
407.8	237.8
408.0	249.3
408.2	257.0
408.4	269.5
408.6	277.4
408.8	285.4
409.0	295.6
409.2	308.3
409.4	320.9
409.6	335.3
409.8	345.3
410.0	357.6
410.2	371.4
410.4	381.9
410.6	394.3
410.8	408.5
411.0	422.6
411.2	439.6
411.4	455.6
411.6	471.3
411.8	489.5
412.0	507.0
412.2	526.2
412.4	545.3
412.6	560.3
412.8	580.5
413.0	600.0
413.2	618.1
413.4	638.9
413.6	660.3
413.8	680.3
414.0	703.3
414.2	719.7
414.4	736.9
414.6	762.2
414.8	788.1
415.0	815.9
415.2	844.9
415.4	870.8
415.6	898.6
415.8	928.0
416.0	952.7
416.2	972.3
416.4	995.7
416.6	1019
416.8	1053
417.0	1084
417.2	1113
417.4	1137
417.6	1157
417.8	1171
418.0	1205
418.2	1238
418.4	1270
418.6	1308
418.8	1341
419.0	1372
419.2	1400
419.4	1429
419.6	1460
419.8	1492
420.0	1523
420.2	1556
420.4	1583
420.6	1621
420.8	1662
421.0	1705
421.2	1740
421.4	1774
421.6	1804
421.8	1830
422.0	1864
422.2	1905
422.4	1945
422.6	1986
422.8	2025
423.0	2060
423.2	2100
423.4	2137
423.6	2171
423.8	2202
424.0	2238
424.2	2271
424.4	2308
424.6	2346
424.8	2384
425.0	2434
425.2	2477
425.4	2509
425.6	2552
425.8	2593
426.0	2638
426.2	2687
426.4	2711
426.6	2738
426.8	2775
427.0	2817
427.2	2865
427.4	2911
427.6	2945
427.8	2982
428.0	3015
428.2	3050
428.4	3090
428.6	3126
428.8	3153
429.0	3186
429.2	3224
429.4	3268
429.6	3311
429.8	3355
430.0	3389
430.2	3422
430.4	3463
430.6	3500
430.8	3535
431.0	3572
431.2	3605
431.4	3637
431.6	3676
431.8	3703
432.0	3743
432.2	3773
432.4	3817
432.6	3867
432.8	3901
433.0	3928
433.2	3960
433.4	3987
433.6	4027
433.8	4070
434.0	4095
434.2	4131
434.4	4169
434.6	4200
434.8	4235
435.0	4272
435.2	4303
435.4	4336
435.6	4367
435.8	4392
436.0	4434
436.2	4480
436.4	4516
436.6	4543
436.8	4561
437.0	4588
437.2	4634
437.4	4671
437.6	4698
437.8	4708
438.0	4733
438.2	4765
438.4	4801
438.6	4830
438.8	4845
439.0	4861
439.2	4903
439.4	4944
439.6	4984
439.8	5019
440.0	5027
440.2	5044
440.4	5058
440.6	5086
440.8	5126
441.0	5164
441.2	5192
441.4	5233
441.6	5251
441.8	5279
442.0	5305
442.2	5324
442.4	5338
442.6	5360
442.8	5369
443.0	5384
443.2	5416
443.4	5453
443.6	5490
443.8	5511
444.0	5525
444.2	5539
444.4	5571
444.6	5600
444.8	5636
445.0	5650
445.2	5663
445.4	5684
445.6	5714
445.8	5724
446.0	5754
446.2	5770
446.4	5782
446.6	5820
446.8	5844
447.0	5853
447.2	5869
447.4	5874
447.6	5883
447.8	5930
448.0	5967
448.2	5998
448.4	6014
448.6	6033
448.8	6039
449.0	6058
449.2	6079
449.4	6093
449.6	6104
449.8	6133
450.0	6149
450.2	6182
450.4	6212
450.6	6228
450.8	6240
451.0	6257
451.2	6264
451.4	6303
451.6	6331
451.8	6351
452.0	6385
452.2	6406
452.4	6414
452.6	6439
452.8	6471
453.0	6486
453.2	6509
453.4	6516
453.6	6528
453.8	6542
454.0	6568
454.2	6589
454.4	6617
454.6	6636
454.8	6674
455.0	6710
455.2	6733
455.4	6757
455.6	6775
455.8	6783
456.0	6804
456.2	6835
456.4	6860
456.6	6895
456.8	6914
457.0	6929
457.2	6939
457.4	6951
457.6	6972
457.8	7013
458.0	7037
458.2	7061
458.4	7076
458.6	7090
458.8	7109
459.0	7128
459.2	7157
459.4	7180
459.6	7191
459.8	7200
460.0	7221
460.2	7243
460.4	7279
460.6	7305
460.8	7319
461.0	7332
461.2	7362
461.4	7375
461.6	7416
461.8	7456
462.0	7467
462.2	7481
462.4	7497
462.6	7488
462.8	7503
463.0	7539
463.2	7538
463.4	7566
463.6	7599
463.8	7629
464.0	7646
464.2	7668
464.4	7673
464.6	7683
464.8	7694
465.0	7732
465.2	7761
465.4	7779
465.6	7788
465.8	7792
466.0	7800
466.2	7833
466.4	7859
466.6	7875
466.8	7876
467.0	7899
467.2	7897
467.4	7909
467.6	7923
467.8	7935
468.0	7963
468.2	8002
468.4	8002
468.6	8000
468.8	8003
469.0	8006
469.2	8029
469.4	8053
469.6	8067
469.8	8075
470.0	8087
470.2	8097
470.4	8109
470.6	8112
470.8	8134
471.0	8155
471.2	8172
471.4	8176
471.6	8182
471.8	8173
472.0	8180
472.2	8188
472.4	8208
472.6	8206
472.8	8227
473.0	8235
473.2	8246
473.4	8259
473.6	8277
473.8	8291
474.0	8324
474.2	8348
474.4	8356
474.6	8354
474.8	8345
475.0	8347
475.2	8347
475.4	8356
475.6	8349
475.8	8356
476.0	8360
476.2	8374
476.4	8380
476.6	8409
476.8	8413
477.0	8425
477.2	8421
477.4	8417
477.6	8425
477.8	8448
478.0	8465
478.2	8489
478.4	8478
478.6	8456
478.8	8433
479.0	8417
479.2	8426
479.4	8442
479.6	8457
479.8	8485
480.0	8482
480.2	8483
480.4	8480
480.6	8461
480.8	8456
481.0	8467
481.2	8462
481.4	8457
481.6	8481
481.8	8483
482.0	8503
482.2	8520
482.4	8525
482.6	8511
482.8	8528
483.0	8516
483.2	8504
483.4	8502
483.6	8510
483.8	8513
484.0	8545
484.2	8541
484.4	8526
484.6	8522
484.8	8524
485.0	8513
485.2	8515
485.4	8509
485.6	8500
485.8	8478
486.0	8483
486.2	8476
486.4	8476
486.6	8478
486.8	8464
487.0	8432
487.2	8439
487.4	8453
487.6	8459
487.8	8470
488.0	8458
488.2	8449
488.4	8445
488.6	8455
488.8	8436
489.0	8418
489.2	8388
489.4	8359
489.6	8361
489.8	8374
490.0	8378
490.2	8369
490.4	8361
490.6	8342
490.8	8344
491.0	8342
491.2	8343
491.4	8326
491.6	8312
491.8	8295
492.0	8259
492.2	8251
492.4	8246
492.6	8232
492.8	8221
493.0	8207
493.2	8197
493.4	8205
493.6	8205
493.8	8204
494.0	8200
494.2	8175
494.4	8148
494.6	8111
494.8	8085
495.0	8074
495.2	8077
495.4	8074
495.6	8082
495.8	8056
496.0	8024
496.2	8002
496.4	7989
496.6	7985
496.8	7992
497.0	7978
497.2	7955
497.4	7938
497.6	7921
497.8	7895
498.0	7879
498.2	7878
498.4	7863
498.6	7830
498.8	7798
499.0	7762
499.2	7744
499.4	7764
499.6	7752
499.8	7721
500.0	7708
500.2	7684
500.4	7639
500.6	7635
500.8	7608
501.0	7583
501.2	7583
501.4	7564
501.6	7531
501.8	7530
502.0	7527
502.2	7507
502.4	7497
502.6	7479
502.8	7459
503.0	7433
503.2	7400
503.4	7359
503.6	7341
503.8	7323
504.0	7317
504.2	7294
504.4	7270
504.6	7245
504.8	7227
505.0	7216
505.2	7206
505.4	7189
505.6	7162
505.8	7128
506.0	7101
506.2	7090
506.4	7077
506.6	7072
506.8	7035
507.0	7001
507.2	6955
507.4	6926
507.6	6914
507.8	6930
508.0	6909
508.2	6894
508.4	6856
508.6	6823
508.8	6792
509.0	6785
509.2	6762
509.4	6751
509.6	6734
509.8	6723
510.0	6703
510.2	6666
510.4	6639
510.6	6601
510.8	6563
511.0	6543
511.2	6528
511.4	6505
511.6	6489
511.8	6452
512.0	6426
512.2	6416
512.4	6404
512.6	6402
512.8	6393
513.0	6371
513.2	6351
513.4	6338
513.6	6311
513.8	6289
514.0	6257
514.2	6220
514.4	6182
514.6	6170
514.8	6157
515.0	6141
515.2	6112
515.4	6099
515.6	6061
515.8	6039
516.0	6028
516.2	6015
516.4	6000
516.6	5976
516.8	5935
517.0	5904
517.2	5891
517.4	5881
517.6	5871
517.8	5836
518.0	5812
518.2	5789
518.4	5786
518.6	5780
518.8	5765
519.0	5740
519.2	5708
519.4	5688
519.6	5663
519.8	5632
520.0	5609
520.2	5601
520.4	5567
520.6	5544
520.8	5512
521.0	5488
521.2	5482
521.4	5472
521.6	5459
521.8	5431
522.0	5393
522.2	5370
522.4	5358
522.6	5328
522.8	5330
523.0	5322
523.2	5292
523.4	5280
523.6	5262
523.8	5229
524.0	5227
524.2	5220
524.4	5199
524.6	5176
524.8	5144
525.0	5122
525.2	5127
525.4	5100
525.6	5081
525.8	5070
526.0	5042
526.2	5025
526.4	5024
526.6	4992
526.8	4970
527.0	4962
527.2	4938
527.4	4929
527.6	4924
527.8	4905
528.0	4889
528.2	4851
528.4	4818
528.6	4802
528.8	4785
529.0	4779
529.2	4787
529.4	4764
529.6	4739
529.8	4716
530.0	4694
530.2	4685
530.4	4680
530.6	4650
530.8	4615
531.0	4585
531.2	4575
531.4	4562
531.6	4557
531.8	4526
532.0	4506
532.2	4500
532.4	4497
532.6	4472
532.8	4463
533.0	4443
533.2	4428
533.4	4421
533.6	4415
533.8	4398
534.0	4380
534.2	4360
534.4	4336
534.6	4315
534.8	4297
535.0	4268
535.2	4255
535.4	4255
535.6	4246
535.8	4223
536.0	4190
536.2	4167
536.4	4161
536.6	4151
536.8	4135
537.0	4111
537.2	4107
537.4	4107
537.6	4096
537.8	4071
538.0	4049
538.2	4038
538.4	4026
538.6	3996
538.8	3959
539.0	3939
539.2	3933
539.4	3945
539.6	3936
539.8	3916
540.0	3879
540.2	3860
540.4	3848
540.6	3837
540.8	3827
541.0	3822
541.2	3805
541.4	3786
541.6	3757
541.8	3733
542.0	3715
542.2	3706
542.4	3700
542.6	3684
542.8	3667
543.0	3665
543.2	3642
543.4	3622
543.6	3603
543.8	3572
544.0	3555
544.2	3553
544.4	3536
544.6	3522
544.8	3502
545.0	3478
545.2	3471
545.4	3468
545.6	3454
545.8	3433
546.0	3410
546.2	3399
546.4	3387
546.6	3384
546.8	3364
547.0	3340
547.2	3323
547.4	3314
547.6	3295
547.8	3283
548.0	3273
548.2	3259
548.4	3246
548.6	3241
548.8	3229
549.0	3212
549.2	3192
549.4	3169
549.6	3139
549.8	3131
550.0	3114
550.2	3102
550.4	3082
550.6	3071
550.8	3050
551.0	3046
551.2	3030
551.4	3015
551.6	2995
551.8	2980
552.0	2957
552.2	2938
552.4	2928
552.6	2917
552.8	2908
553.0	2910
553.2	2903
553.4	2885
553.6	2872
553.8	2849
554.0	2836
554.2	2821
554.4	2803
554.6	2788
554.8	2766
555.0	2751
555.2	2745
555.4	2729
555.6	2725
555.8	2706
556.0	2681
556.2	2667
556.4	2653
556.6	2639
556.8	2643
557.0	2639
557.2	2633
557.4	2621
557.6	2604
557.8	2592
558.0	2579
558.2	2570
558.4	2549
558.6	2534
558.8	2518
559.0	2510
559.2	2485
559.4	2472
559.6	2451
559.8	2444
560.0	2436
560.2	2430
560.4	2416
560.6	2412
560.8	2397
561.0	2382
561.2	2365
561.4	2358
561.6	2345
561.8	2336
562.0	2330
562.2	2321
562.4	2306
562.6	2301
562.8	2283
563.0	2271
563.2	2262
563.4	2247
563.6	2232
563.8	2222
564.0	2211
564.2	2197
564.4	2191
564.6	2183
564.8	2174
565.0	2158
565.2	2149
565.4	2125
565.6	2107
565.8	2095
566.0	2090
566.2	2084
566.4	2086
566.6	2077
566.8	2064
567.0	2053
567.2	2037
567.4	2022
567.6	2012
567.8	2005
568.0	1990
568.2	1986
568.4	1971
568.6	1967
568.8	1960
569.0	1949
569.2	1928
569.4	1924
569.6	1914
569.8	1915
570.0	1908
570.2	1895
570.4	1881
570.6	1866
570.8	1850
571.0	1841
571.2	1835
571.4	1830
571.6	1828
571.8	1819
572.0	1809
572.2	1798
572.4	1789
572.6	1779
572.8	1770
573.0	1756
573.2	1740
573.4	1732
573.6	1736
573.8	1741
574.0	1744
574.2	1729
574.4	1707
574.6	1687
574.8	1677
575.0	1665
575.2	1659
575.4	1654
575.6	1644
575.8	1635
576.0	1631
576.2	1619
576.4	1613
576.6	1615
576.8	1603
577.0	1598
577.2	1589
577.4	1576
577.6	1571
577.8	1564
578.0	1560
578.2	1551
578.4	1542
578.6	1526
578.8	1518
579.0	1512
579.2	1513
579.4	1505
579.6	1503
579.8	1488
580.0	1477
580.2	1474
580.4	1473
580.6	1466
580.8	1459
581.0	1448
581.2	1428
581.4	1419
581.6	1417
581.8	1413
582.0	1407
582.2	1401
582.4	1389
582.6	1386
582.8	1384
583.0	1382
583.2	1370
583.4	1355
583.6	1346
583.8	1345
584.0	1343
584.2	1335
584.4	1320
584.6	1306
584.8	1305
585.0	1304
585.2	1300
585.4	1293
585.6	1283
585.8	1275
586.0	1270
586.2	1263
586.4	1248
586.6	1242
586.8	1235
587.0	1227
587.2	1230
587.4	1231
587.6	1225
587.8	1219
588.0	1211
588.2	1198
588.4	1194
588.6	1189
588.8	1186
589.0	1181
589.2	1178
589.4	1167
589.6	1157
589.8	1148
590.0	1147
590.2	1147
590.4	1144
590.6	1134
590.8	1125
591.0	1117
591.2	1113
591.4	1112
591.6	1104
591.8	1094
592.0	1084
592.2	1079
592.4	1075
592.6	1076
592.8	1073
593.0	1072
593.2	1069
593.4	1060
593.6	1056
593.8	1047
594.0	1036
594.2	1021
594.4	1015
594.6	1008
594.8	1008
595.0	1004
595.2	998.8
595.4	985.8
595.6	979.1
595.8	974.8
596.0	970.7
596.2	969.6
596.4	967.8
596.6	963.5
596.8	954.9
597.0	946.9
597.2	942.6
597.4	939.2
597.6	937.3
597.8	932.9
598.0	929.3
598.2	918.8
598.4	910.3
598.6	901.7
598.8	900.6
599.0	894.6
599.2	898.6
599.4	895.7
599.6	888.6
599.8	879.9
600.0	876.0
600.2	869.3
600.4	870.4
600.6	865.2
600.8	852.5
601.0	845.8
601.2	843.6
601.4	838.8
601.6	835.3
601.8	829.8
602.0	824.3
602.2	823.6
602.4	822.1
602.6	813.1
602.8	803.9
603.0	797.3
603.2	796.0
603.4	799.3
603.6	797.5
603.8	789.6
604.0	779.0
604.2	773.5
604.4	774.0
604.6	779.8
604.8	775.8
605.0	769.0
605.2	756.7
605.4	746.0
605.6	740.6
605.8	738.6
606.0	732.8
606.2	731.3
606.4	734.7
606.6	728.1
606.8	725.7
607.0	724.8
607.2	716.9
607.4	711.0
607.6	711.9
607.8	701.6
608.0	695.1
608.2	692.9
608.4	684.4
608.6	680.9
608.8	679.7
609.0	671.8
609.2	670.6
609.4	669.8
609.6	667.6
609.8	670.4
610.0	668.6
610.2	658.7
610.4	651.8
610.6	645.4
610.8	640.6
611.0	638.5
611.2	637.3
611.4	634.0
611.6	630.9
611.8	627.4
612.0	623.3
612.2	618.3
612.4	613.0
612.6	606.8
612.8	603.9
613.0	598.2
613.2	597.7
613.4	598.2
613.6	595.1
613.8	590.4
614.0	589.0
614.2	583.7
614.4	580.1
614.6	573.6
614.8	568.2
615.0	564.6
615.2	561.6
615.4	562.5
615.6	562.5
615.8	560.0
616.0	558.5
616.2	554.1
616.4	546.5
616.6	543.8
616.8	540.7
617.0	542.6
617.2	538.1
617.4	533.7
617.6	528.0
617.8	522.3
618.0	519.7
618.2	522.2
618.4	520.6
618.6	519.9
618.8	511.1
619.0	503.0
619.2	502.1
619.4	499.6
619.6	499.0
619.8	495.2
620.0	487.6
620.2	486.0
620.4	492.9
620.6	492.8
620.8	491.5
621.0	482.5
621.2	475.9
621.4	473.1
621.6	472.9
621.8	469.4
622.0	470.8
622.2	468.8
622.4	466.8
622.6	464.1
622.8	455.5
623.0	444.3
623.2	443.7
623.4	446.7
623.6	446.3
623.8	446.1
624.0	442.7
624.2	433.8
624.4	432.7
624.6	428.3
624.8	421.4
625.0	416.4
625.2	416.7
625.4	416.9
625.6	421.7
625.8	420.1
626.0	417.3
626.2	413.3
626.4	411.3
626.6	407.3
626.8	400.8
627.0	397.5
627.2	395.7
627.4	394.3
627.6	394.3
627.8	391.0
628.0	387.3
628.2	387.8
628.4	386.6
628.6	383.9
628.8	380.4
629.0	378.8
629.2	372.6
629.4	369.9
629.6	368.4
629.8	369.8
630.0	367.6
630.2	369.7
630.4	365.3
630.6	359.3
630.8	353.1
631.0	350.1
631.2	345.5
631.4	347.1
631.6	350.4
631.8	347.4
632.0	342.4
632.2	339.5
632.4	336.7
632.6	337.1
632.8	338.3
633.0	335.4
633.2	331.9
633.4	328.8
633.6	327.9
633.8	328.0
634.0	327.9
634.2	325.9
634.4	324.3
634.6	321.6
634.8	318.9
635.0	315.0
635.2	311.9
635.4	310.9
635.6	310.8
635.8	309.9
636.0	307.4
636.2	306.5
636.4	305.2
636.6	303.6
636.8	301.9
637.0	297.1
637.2	292.8
637.4	294.2
637.6	292.1
637.8	289.2
638.0	289.4
638.2	285.1
638.4	281.4
638.6	281.7
638.8	277.6
639.0	275.6
639.2	275.2
639.4	275.5
639.6	274.7
639.8	273.6
640.0	268.8
640.2	267.6
640.4	266.8
640.6	267.7
640.8	265.8
641.0	262.7
641.2	259.6
641.4	260.0
641.6	259.8
641.8	257.6
642.0	255.5
642.2	253.9
642.4	253.2
642.6	251.9
642.8	250.5
643.0	244.7
643.2	238.3
643.4	236.7
643.6	235.9
643.8	237.2
644.0	241.5
644.2	239.6
644.4	234.5
644.6	231.8
644.8	230.0
645.0	230.1
645.2	230.7
645.4	229.3
645.6	226.6
645.8	223.9
646.0	224.2
646.2	224.5
646.4	224.5
646.6	222.3
646.8	221.9
647.0	220.6
647.2	217.6
647.4	216.4
647.6	214.7
647.8	213.1
648.0	215.1
648.2	212.3
648.4	207.6
648.6	206.4
648.8	203.6
649.0	204.3
649.2	205.1
649.4	199.8
649.6	197.6
649.8	197.0
650.0	195.2
650.2	196.2
650.4	196.8
650.6	194.6
650.8	196.4
651.0	193.3
651.2	188.0
651.4	187.7
651.6	187.4
651.8	187.6
652.0	192.5
652.2	190.9
652.4	187.1
652.6	185.2
652.8	181.0
653.0	179.4
653.2	179.3
653.4	178.8
653.6	177.0
653.8	175.3
654.0	172.3
654.2	173.6
654.4	173.3
654.6	174.1
654.8	172.6
655.0	170.7
655.2	166.9
655.4	166.3
655.6	164.0
655.8	163.6
656.0	163.0
656.2	161.3
656.4	162.5
656.6	163.5
656.8	160.7
657.0	159.8
657.2	157.9
657.4	156.4
657.6	157.9
657.8	156.4
658.0	154.0
658.2	153.0
658.4	151.8
658.6	152.8
658.8	151.9
659.0	150.9
659.2	149.5
659.4	147.3
659.6	146.1
659.8	147.6
660.0	147.2
660.2	148.4
660.4	145.9
660.6	143.8
660.8	141.9
661.0	143.4
661.2	144.0
661.4	143.0
661.6	139.3
661.8	137.1
662.0	133.7
662.2	134.5
662.4	135.2
662.6	133.3
662.8	130.8
663.0	129.7
663.2	129.7
663.4	129.5
663.6	129.7
663.8	128.4
664.0	126.7
664.2	127.1
664.4	127.9
664.6	126.9
664.8	125.1
665.0	122.4
665.2	121.5
665.4	121.2
665.6	120.9
665.8	119.6
666.0	118.2
666.2	117.2
666.4	117.8
666.6	117.9
666.8	117.5
667.0	115.3
667.2	114.5
667.4	112.8
667.6	112.4
667.8	112.8
668.0	111.6
668.2	110.3
668.4	109.7
668.6	109.3
668.8	110.3
669.0	111.6
669.2	109.2
669.4	106.5
669.6	105.4
669.8	105.7
670.0	106.2
670.2	107.5
670.4	105.3
670.6	103.0
670.8	102.3
671.0	103.0
671.2	103.4
671.4	103.3
671.6	102.0
671.8	98.79
672.0	96.57
672.2	95.37
672.4	97.36
672.6	98.11
672.8	99.54
673.0	97.85
673.2	96.98
673.4	95.63
673.6	95.28
673.8	93.22
674.0	92.19
674.2	91.42
674.4	92.46
674.6	93.77
674.8	92.48
675.0	91.04
675.2	90.80
675.4	91.26
675.6	90.94
675.8	91.43
676.0	89.57
676.2	86.93
676.4	85.33
676.6	85.03
676.8	83.14
677.0	82.33
677.2	80.90
677.4	81.30
677.6	82.69
677.8	85.44
678.0	86.37
678.2	84.75
678.4	81.95
678.6	80.59
678.8	80.63
679.0	81.16
679.2	80.56
679.4	78.58
679.6	76.40
679.8	75.24
680.0	76.07

