Sample:	'20211010A(EM)
File name:	B-CDS 7.FDS
Run date:	'09:37:40, 06/08/2023
Operator:	Administrator
Comment:	'

Instrument
Model:	F-4700 FL Spectrophotometer
Serial number:	2019-001
ROM Version:	5J24010 00

Instrument parameters
Measurement type:	Wavelength scan
Scan mode:	Emission
Data mode:	Fluorescence
EX WL:	350.0 nm
EM  Start WL:	370.0 nm
EM  End WL:	680.0 nm
Scan speed:	1200 nm/min
Delay:	0.0 s
EX Slit:	10.0 nm
EM Slit:	10.0 nm
PMT Voltage:	520 V
Response:	0.002 s
Corrected spectra:	Off
Shutter control:	On

Processing performed
Savitsky-Golay smoothed
Smoothing order:	3
Number of points:	7
Number of times:	1

Peak integration
Integration method:	Rectangular
Sensitivity:	1
Threshold:	1.000

Peaks
No.	Start(nm)	Apex(nm)	End(nm)	Height(Data)	Valley(nm)	Valley(Data)
1	372.0	483.0	483.6	3959	483.6	3937
2	483.6	486.4	487.2	3973	487.2	3949
3	487.2	487.8	622.8	3962	622.8	165.9
4	622.8	623.6	655.0	171.6	655.0	56.71
5	655.0	655.8	658.0	58.46	658.0	50.65
6	658.0	658.6	663.8	52.06	663.8	41.44
7	663.8	664.6	680.0	43.29	680.0	25.73

Data points
nm	Data
370.0	6.495
370.2	5.005
370.4	4.637
370.6	4.928
370.8	5.070
371.0	5.616
371.2	5.686
371.4	5.414
371.6	5.039
371.8	4.900
372.0	4.812
372.2	4.958
372.4	4.946
372.6	5.119
372.8	5.138
373.0	5.239
373.2	5.303
373.4	5.148
373.6	5.090
373.8	4.941
374.0	5.094
374.2	5.187
374.4	5.030
374.6	5.284
374.8	5.428
375.0	5.324
375.2	5.276
375.4	5.343
375.6	5.229
375.8	5.464
376.0	5.235
376.2	5.366
376.4	5.289
376.6	5.628
376.8	5.748
377.0	5.845
377.2	5.731
377.4	5.760
377.6	5.878
377.8	5.737
378.0	5.530
378.2	5.156
378.4	5.327
378.6	5.680
378.8	6.215
379.0	6.331
379.2	6.142
379.4	5.829
379.6	5.952
379.8	6.512
380.0	6.710
380.2	6.765
380.4	6.852
380.6	6.659
380.8	6.631
381.0	6.784
381.2	7.354
381.4	7.283
381.6	7.352
381.8	7.048
382.0	6.951
382.2	6.654
382.4	7.379
382.6	7.060
382.8	7.147
383.0	7.351
383.2	7.514
383.4	7.539
383.6	7.884
383.8	7.562
384.0	7.560
384.2	7.699
384.4	7.923
384.6	8.347
384.8	8.707
385.0	8.721
385.2	8.486
385.4	8.268
385.6	8.081
385.8	8.526
386.0	9.371
386.2	10.51
386.4	10.90
386.6	10.92
386.8	10.57
387.0	10.28
387.2	10.82
387.4	11.10
387.6	11.40
387.8	11.54
388.0	11.74
388.2	11.71
388.4	12.28
388.6	12.08
388.8	12.49
389.0	12.49
389.2	12.27
389.4	13.12
389.6	14.25
389.8	14.82
390.0	15.17
390.2	14.77
390.4	13.53
390.6	14.00
390.8	14.92
391.0	15.64
391.2	16.39
391.4	17.35
391.6	17.51
391.8	17.71
392.0	18.20
392.2	18.74
392.4	19.22
392.6	20.18
392.8	20.51
393.0	20.81
393.2	21.82
393.4	22.19
393.6	22.45
393.8	23.04
394.0	23.79
394.2	24.50
394.4	25.93
394.6	26.17
394.8	27.33
395.0	28.50
395.2	29.77
395.4	30.12
395.6	30.69
395.8	30.31
396.0	31.25
396.2	33.17
396.4	35.10
396.6	36.23
396.8	37.61
397.0	38.09
397.2	38.28
397.4	40.48
397.6	41.39
397.8	41.96
398.0	43.60
398.2	44.85
398.4	46.06
398.6	48.83
398.8	50.27
399.0	52.15
399.2	53.93
399.4	55.21
399.6	57.36
399.8	59.45
400.0	60.79
400.2	62.07
400.4	63.06
400.6	64.32
400.8	66.81
401.0	68.88
401.2	70.90
401.4	74.19
401.6	78.67
401.8	81.39
402.0	84.39
402.2	85.43
402.4	87.23
402.6	90.76
402.8	93.66
403.0	96.01
403.2	98.56
403.4	99.83
403.6	103.0
403.8	107.2
404.0	109.8
404.2	112.8
404.4	116.3
404.6	117.4
404.8	121.6
405.0	127.1
405.2	131.9
405.4	136.2
405.6	141.7
405.8	144.8
406.0	151.0
406.2	156.8
406.4	159.9
406.6	163.2
406.8	166.0
407.0	170.0
407.2	174.7
407.4	179.8
407.6	185.5
407.8	192.1
408.0	196.1
408.2	202.2
408.4	207.9
408.6	214.4
408.8	220.6
409.0	227.3
409.2	230.6
409.4	236.4
409.6	241.2
409.8	247.3
410.0	255.9
410.2	264.0
410.4	272.0
410.6	278.5
410.8	284.0
411.0	290.8
411.2	299.5
411.4	305.9
411.6	314.8
411.8	321.4
412.0	329.4
412.2	336.8
412.4	342.9
412.6	348.2
412.8	355.6
413.0	364.3
413.2	373.3
413.4	382.6
413.6	392.3
413.8	400.6
414.0	407.8
414.2	416.9
414.4	427.2
414.6	437.6
414.8	444.2
415.0	452.5
415.2	460.3
415.4	469.2
415.6	482.8
415.8	497.7
416.0	507.7
416.2	518.9
416.4	530.9
416.6	537.9
416.8	549.7
417.0	560.4
417.2	570.6
417.4	579.3
417.6	586.5
417.8	596.9
418.0	612.3
418.2	627.0
418.4	640.1
418.6	651.3
418.8	656.1
419.0	668.1
419.2	677.6
419.4	692.4
419.6	706.4
419.8	721.1
420.0	733.1
420.2	750.0
420.4	759.9
420.6	775.7
420.8	785.7
421.0	793.4
421.2	800.9
421.4	815.1
421.6	829.8
421.8	843.0
422.0	854.6
422.2	868.0
422.4	884.9
422.6	903.3
422.8	920.4
423.0	929.5
423.2	939.6
423.4	951.1
423.6	962.2
423.8	975.2
424.0	988.2
424.2	1002
424.4	1017
424.6	1040
424.8	1055
425.0	1069
425.2	1083
425.4	1093
425.6	1108
425.8	1125
426.0	1137
426.2	1149
426.4	1161
426.6	1175
426.8	1190
427.0	1208
427.2	1222
427.4	1241
427.6	1248
427.8	1258
428.0	1268
428.2	1286
428.4	1301
428.6	1323
428.8	1337
429.0	1350
429.2	1366
429.4	1381
429.6	1392
429.8	1408
430.0	1418
430.2	1429
430.4	1445
430.6	1458
430.8	1470
431.0	1489
431.2	1501
431.4	1521
431.6	1530
431.8	1543
432.0	1557
432.2	1575
432.4	1594
432.6	1613
432.8	1621
433.0	1624
433.2	1628
433.4	1645
433.6	1666
433.8	1690
434.0	1713
434.2	1729
434.4	1738
434.6	1753
434.8	1762
435.0	1772
435.2	1779
435.4	1790
435.6	1798
435.8	1817
436.0	1834
436.2	1852
436.4	1866
436.6	1880
436.8	1888
437.0	1903
437.2	1909
437.4	1922
437.6	1934
437.8	1955
438.0	1970
438.2	1983
438.4	1994
438.6	2002
438.8	2011
439.0	2028
439.2	2040
439.4	2052
439.6	2067
439.8	2080
440.0	2095
440.2	2113
440.4	2116
440.6	2126
440.8	2140
441.0	2152
441.2	2161
441.4	2170
441.6	2178
441.8	2197
442.0	2215
442.2	2234
442.4	2244
442.6	2247
442.8	2256
443.0	2272
443.2	2279
443.4	2298
443.6	2306
443.8	2318
444.0	2328
444.2	2338
444.4	2349
444.6	2365
444.8	2373
445.0	2394
445.2	2405
445.4	2420
445.6	2430
445.8	2440
446.0	2449
446.2	2464
446.4	2473
446.6	2485
446.8	2493
447.0	2502
447.2	2515
447.4	2536
447.6	2547
447.8	2555
448.0	2562
448.2	2574
448.4	2587
448.6	2597
448.8	2603
449.0	2618
449.2	2623
449.4	2633
449.6	2650
449.8	2661
450.0	2677
450.2	2694
450.4	2704
450.6	2710
450.8	2727
451.0	2732
451.2	2740
451.4	2749
451.6	2763
451.8	2773
452.0	2792
452.2	2793
452.4	2802
452.6	2810
452.8	2815
453.0	2829
453.2	2840
453.4	2850
453.6	2869
453.8	2888
454.0	2903
454.2	2925
454.4	2929
454.6	2936
454.8	2943
455.0	2953
455.2	2964
455.4	2987
455.6	2993
455.8	2998
456.0	3003
456.2	3016
456.4	3020
456.6	3036
456.8	3046
457.0	3055
457.2	3069
457.4	3085
457.6	3088
457.8	3099
458.0	3106
458.2	3119
458.4	3132
458.6	3148
458.8	3169
459.0	3178
459.2	3181
459.4	3188
459.6	3193
459.8	3213
460.0	3238
460.2	3248
460.4	3255
460.6	3262
460.8	3271
461.0	3286
461.2	3298
461.4	3306
461.6	3307
461.8	3315
462.0	3335
462.2	3352
462.4	3362
462.6	3369
462.8	3364
463.0	3366
463.2	3379
463.4	3401
463.6	3419
463.8	3437
464.0	3452
464.2	3459
464.4	3466
464.6	3472
464.8	3472
465.0	3477
465.2	3484
465.4	3494
465.6	3509
465.8	3514
466.0	3516
466.2	3521
466.4	3529
466.6	3546
466.8	3558
467.0	3570
467.2	3576
467.4	3580
467.6	3593
467.8	3607
468.0	3617
468.2	3629
468.4	3641
468.6	3640
468.8	3644
469.0	3654
469.2	3657
469.4	3662
469.6	3678
469.8	3685
470.0	3691
470.2	3688
470.4	3682
470.6	3690
470.8	3707
471.0	3734
471.2	3749
471.4	3739
471.6	3730
471.8	3736
472.0	3748
472.2	3765
472.4	3778
472.6	3779
472.8	3770
473.0	3765
473.2	3772
473.4	3786
473.6	3806
473.8	3818
474.0	3802
474.2	3803
474.4	3814
474.6	3826
474.8	3838
475.0	3848
475.2	3852
475.4	3861
475.6	3868
475.8	3863
476.0	3860
476.2	3863
476.4	3875
476.6	3882
476.8	3881
477.0	3882
477.2	3885
477.4	3886
477.6	3896
477.8	3902
478.0	3904
478.2	3907
478.4	3904
478.6	3903
478.8	3911
479.0	3919
479.2	3919
479.4	3909
479.6	3905
479.8	3911
480.0	3926
480.2	3940
480.4	3950
480.6	3939
480.8	3936
481.0	3934
481.2	3930
481.4	3929
481.6	3939
481.8	3940
482.0	3944
482.2	3949
482.4	3947
482.6	3951
482.8	3952
483.0	3959
483.2	3949
483.4	3942
483.6	3937
483.8	3945
484.0	3949
484.2	3958
484.4	3957
484.6	3958
484.8	3956
485.0	3960
485.2	3959
485.4	3962
485.6	3966
485.8	3973
486.0	3971
486.2	3973
486.4	3973
486.6	3968
486.8	3958
487.0	3956
487.2	3949
487.4	3951
487.6	3955
487.8	3962
488.0	3962
488.2	3962
488.4	3950
488.6	3938
488.8	3927
489.0	3925
489.2	3926
489.4	3923
489.6	3912
489.8	3903
490.0	3898
490.2	3900
490.4	3910
490.6	3907
490.8	3902
491.0	3894
491.2	3893
491.4	3902
491.6	3899
491.8	3885
492.0	3875
492.2	3866
492.4	3876
492.6	3890
492.8	3883
493.0	3866
493.2	3843
493.4	3829
493.6	3827
493.8	3826
494.0	3819
494.2	3816
494.4	3808
494.6	3799
494.8	3790
495.0	3783
495.2	3782
495.4	3789
495.6	3793
495.8	3789
496.0	3776
496.2	3772
496.4	3766
496.6	3755
496.8	3745
497.0	3733
497.2	3713
497.4	3718
497.6	3709
497.8	3708
498.0	3707
498.2	3699
498.4	3691
498.6	3687
498.8	3679
499.0	3669
499.2	3660
499.4	3646
499.6	3643
499.8	3637
500.0	3633
500.2	3620
500.4	3616
500.6	3608
500.8	3608
501.0	3593
501.2	3575
501.4	3558
501.6	3549
501.8	3534
502.0	3525
502.2	3512
502.4	3508
502.6	3505
502.8	3501
503.0	3484
503.2	3473
503.4	3468
503.6	3467
503.8	3464
504.0	3452
504.2	3431
504.4	3417
504.6	3407
504.8	3406
505.0	3401
505.2	3388
505.4	3382
505.6	3383
505.8	3379
506.0	3368
506.2	3349
506.4	3327
506.6	3310
506.8	3297
507.0	3291
507.2	3274
507.4	3262
507.6	3261
507.8	3249
508.0	3242
508.2	3244
508.4	3238
508.6	3234
508.8	3229
509.0	3204
509.2	3192
509.4	3183
509.6	3175
509.8	3167
510.0	3164
510.2	3154
510.4	3149
510.6	3137
510.8	3118
511.0	3094
511.2	3081
511.4	3074
511.6	3074
511.8	3074
512.0	3067
512.2	3053
512.4	3027
512.6	3008
512.8	2999
513.0	2994
513.2	2988
513.4	2982
513.6	2966
513.8	2965
514.0	2964
514.2	2962
514.4	2944
514.6	2923
514.8	2902
515.0	2892
515.2	2883
515.4	2874
515.6	2854
515.8	2838
516.0	2830
516.2	2825
516.4	2822
516.6	2820
516.8	2814
517.0	2813
517.2	2805
517.4	2794
517.6	2776
517.8	2767
518.0	2756
518.2	2747
518.4	2735
518.6	2725
518.8	2714
519.0	2708
519.2	2694
519.4	2681
519.6	2677
519.8	2670
520.0	2665
520.2	2645
520.4	2628
520.6	2616
520.8	2610
521.0	2615
521.2	2614
521.4	2600
521.6	2589
521.8	2580
522.0	2562
522.2	2559
522.4	2552
522.6	2542
522.8	2537
523.0	2527
523.2	2512
523.4	2506
523.6	2496
523.8	2479
524.0	2469
524.2	2455
524.4	2441
524.6	2434
524.8	2428
525.0	2417
525.2	2409
525.4	2406
525.6	2391
525.8	2385
526.0	2378
526.2	2370
526.4	2358
526.6	2351
526.8	2339
527.0	2339
527.2	2329
527.4	2322
527.6	2309
527.8	2294
528.0	2278
528.2	2279
528.4	2268
528.6	2264
528.8	2261
529.0	2255
529.2	2240
529.4	2233
529.6	2224
529.8	2220
530.0	2208
530.2	2206
530.4	2193
530.6	2181
530.8	2180
531.0	2176
531.2	2163
531.4	2161
531.6	2145
531.8	2130
532.0	2119
532.2	2112
532.4	2100
532.6	2097
532.8	2086
533.0	2083
533.2	2076
533.4	2066
533.6	2047
533.8	2034
534.0	2017
534.2	2008
534.4	2005
534.6	2000
534.8	1992
535.0	1978
535.2	1963
535.4	1954
535.6	1954
535.8	1960
536.0	1960
536.2	1953
536.4	1942
536.6	1934
536.8	1920
537.0	1916
537.2	1911
537.4	1897
537.6	1888
537.8	1877
538.0	1863
538.2	1859
538.4	1861
538.6	1842
538.8	1832
539.0	1820
539.2	1813
539.4	1806
539.6	1804
539.8	1790
540.0	1782
540.2	1772
540.4	1764
540.6	1754
540.8	1750
541.0	1744
541.2	1740
541.4	1735
541.6	1728
541.8	1716
542.0	1710
542.2	1703
542.4	1689
542.6	1678
542.8	1666
543.0	1654
543.2	1654
543.4	1651
543.6	1645
543.8	1639
544.0	1630
544.2	1619
544.4	1606
544.6	1594
544.8	1588
545.0	1587
545.2	1585
545.4	1582
545.6	1575
545.8	1566
546.0	1558
546.2	1549
546.4	1535
546.6	1527
546.8	1516
547.0	1512
547.2	1504
547.4	1494
547.6	1483
547.8	1476
548.0	1466
548.2	1468
548.4	1461
548.6	1455
548.8	1444
549.0	1435
549.2	1422
549.4	1415
549.6	1404
549.8	1400
550.0	1394
550.2	1391
550.4	1391
550.6	1383
550.8	1371
551.0	1356
551.2	1345
551.4	1339
551.6	1343
551.8	1341
552.0	1334
552.2	1324
552.4	1315
552.6	1306
552.8	1301
553.0	1292
553.2	1281
553.4	1274
553.6	1265
553.8	1259
554.0	1256
554.2	1254
554.4	1252
554.6	1248
554.8	1242
555.0	1235
555.2	1223
555.4	1213
555.6	1203
555.8	1202
556.0	1197
556.2	1190
556.4	1175
556.6	1168
556.8	1159
557.0	1156
557.2	1155
557.4	1151
557.6	1145
557.8	1138
558.0	1127
558.2	1115
558.4	1108
558.6	1102
558.8	1102
559.0	1100
559.2	1097
559.4	1090
559.6	1084
559.8	1080
560.0	1081
560.2	1075
560.4	1070
560.6	1060
560.8	1050
561.0	1043
561.2	1042
561.4	1032
561.6	1026
561.8	1017
562.0	1009
562.2	1002
562.4	999.7
562.6	996.8
562.8	993.1
563.0	986.6
563.2	984.6
563.4	979.7
563.6	976.4
563.8	972.3
564.0	965.5
564.2	953.5
564.4	946.4
564.6	944.1
564.8	940.7
565.0	935.0
565.2	928.3
565.4	922.9
565.6	917.2
565.8	913.8
566.0	906.5
566.2	900.6
566.4	895.2
566.6	892.6
566.8	886.8
567.0	882.5
567.2	878.8
567.4	875.0
567.6	871.3
567.8	866.2
568.0	858.6
568.2	854.5
568.4	855.2
568.6	851.2
568.8	846.3
569.0	840.5
569.2	832.3
569.4	831.0
569.6	832.7
569.8	829.5
570.0	823.4
570.2	819.1
570.4	812.6
570.6	804.0
570.8	799.2
571.0	794.4
571.2	789.3
571.4	785.4
571.6	779.7
571.8	770.9
572.0	770.8
572.2	771.7
572.4	769.2
572.6	762.8
572.8	757.1
573.0	749.1
573.2	744.8
573.4	742.4
573.6	739.4
573.8	734.4
574.0	731.4
574.2	727.7
574.4	724.1
574.6	719.6
574.8	713.6
575.0	708.1
575.2	702.0
575.4	701.4
575.6	697.2
575.8	691.1
576.0	687.6
576.2	689.9
576.4	688.1
576.6	684.6
576.8	674.2
577.0	663.9
577.2	664.3
577.4	666.0
577.6	671.2
577.8	667.4
578.0	660.0
578.2	652.9
578.4	648.6
578.6	642.6
578.8	641.5
579.0	638.1
579.2	636.0
579.4	634.1
579.6	626.4
579.8	620.1
580.0	614.3
580.2	612.1
580.4	610.5
580.6	610.7
580.8	605.0
581.0	601.1
581.2	598.5
581.4	596.7
581.6	596.4
581.8	595.0
582.0	589.0
582.2	580.3
582.4	573.9
582.6	568.6
582.8	568.4
583.0	569.3
583.2	568.5
583.4	564.3
583.6	561.2
583.8	558.1
584.0	554.4
584.2	550.7
584.4	547.3
584.6	545.9
584.8	546.3
585.0	545.2
585.2	535.8
585.4	528.1
585.6	521.0
585.8	518.1
586.0	519.3
586.2	519.3
586.4	515.8
586.6	518.3
586.8	516.4
587.0	512.3
587.2	508.5
587.4	501.1
587.6	497.6
587.8	494.0
588.0	493.9
588.2	493.3
588.4	492.3
588.6	489.6
588.8	485.8
589.0	478.4
589.2	476.9
589.4	475.2
589.6	475.0
589.8	472.9
590.0	467.8
590.2	464.4
590.4	460.8
590.6	457.9
590.8	454.1
591.0	451.7
591.2	450.5
591.4	450.8
591.6	450.1
591.8	448.5
592.0	443.3
592.2	437.5
592.4	435.8
592.6	432.8
592.8	430.5
593.0	427.7
593.2	424.5
593.4	419.5
593.6	420.8
593.8	418.1
594.0	416.1
594.2	411.7
594.4	406.7
594.6	404.9
594.8	406.3
595.0	406.7
595.2	408.0
595.4	402.6
595.6	396.5
595.8	392.0
596.0	389.4
596.2	387.0
596.4	387.6
596.6	385.8
596.8	386.4
597.0	383.7
597.2	380.7
597.4	376.4
597.6	374.0
597.8	371.1
598.0	369.2
598.2	366.6
598.4	364.0
598.6	361.8
598.8	360.8
599.0	357.3
599.2	355.2
599.4	353.4
599.6	349.5
599.8	345.5
600.0	346.6
600.2	345.6
600.4	345.5
600.6	342.7
600.8	339.1
601.0	336.5
601.2	336.7
601.4	335.4
601.6	332.8
601.8	326.5
602.0	324.1
602.2	323.6
602.4	324.6
602.6	321.8
602.8	317.4
603.0	311.0
603.2	310.4
603.4	309.2
603.6	312.3
603.8	310.3
604.0	310.6
604.2	306.3
604.4	304.7
604.6	300.9
604.8	299.0
605.0	295.2
605.2	293.8
605.4	293.1
605.6	294.3
605.8	294.5
606.0	295.3
606.2	292.8
606.4	288.5
606.6	284.9
606.8	280.9
607.0	277.5
607.2	278.8
607.4	281.2
607.6	280.8
607.8	275.2
608.0	270.3
608.2	266.2
608.4	264.3
608.6	266.7
608.8	266.6
609.0	264.2
609.2	261.2
609.4	259.5
609.6	258.3
609.8	257.4
610.0	255.2
610.2	253.3
610.4	252.0
610.6	251.6
610.8	251.1
611.0	248.8
611.2	245.5
611.4	242.8
611.6	242.3
611.8	239.7
612.0	237.8
612.2	237.3
612.4	235.2
612.6	234.8
612.8	235.0
613.0	234.5
613.2	232.9
613.4	230.7
613.6	226.7
613.8	225.1
614.0	222.6
614.2	221.9
614.4	220.2
614.6	219.0
614.8	217.8
615.0	217.2
615.2	217.0
615.4	216.4
615.6	214.7
615.8	213.5
616.0	211.8
616.2	207.8
616.4	208.4
616.6	207.1
616.8	205.8
617.0	204.5
617.2	203.9
617.4	202.9
617.6	201.1
617.8	198.8
618.0	198.7
618.2	198.1
618.4	198.9
618.6	199.8
618.8	196.6
619.0	194.7
619.2	194.5
619.4	193.4
619.6	192.6
619.8	190.1
620.0	187.7
620.2	185.4
620.4	182.9
620.6	180.1
620.8	178.7
621.0	177.8
621.2	178.6
621.4	178.8
621.6	176.0
621.8	174.0
622.0	172.5
622.2	172.4
622.4	171.0
622.6	169.2
622.8	165.9
623.0	166.5
623.2	169.0
623.4	171.1
623.6	171.6
623.8	169.3
624.0	166.7
624.2	163.9
624.4	161.7
624.6	159.7
624.8	158.9
625.0	158.0
625.2	158.4
625.4	157.6
625.6	155.5
625.8	154.0
626.0	154.5
626.2	154.0
626.4	151.8
626.6	149.0
626.8	147.7
627.0	145.4
627.2	146.2
627.4	147.0
627.6	146.8
627.8	145.7
628.0	146.9
628.2	146.1
628.4	146.1
628.6	144.7
628.8	142.7
629.0	140.9
629.2	139.4
629.4	138.4
629.6	137.9
629.8	135.3
630.0	133.6
630.2	132.5
630.4	131.5
630.6	131.7
630.8	131.4
631.0	131.4
631.2	129.4
631.4	127.5
631.6	126.2
631.8	126.0
632.0	126.2
632.2	126.6
632.4	125.4
632.6	125.6
632.8	124.9
633.0	123.8
633.2	122.5
633.4	119.7
633.6	118.4
633.8	119.2
634.0	119.2
634.2	119.7
634.4	119.7
634.6	116.3
634.8	115.1
635.0	114.4
635.2	113.2
635.4	113.1
635.6	112.7
635.8	109.9
636.0	107.3
636.2	105.9
636.4	106.4
636.6	107.4
636.8	108.2
637.0	108.2
637.2	107.2
637.4	108.1
637.6	107.7
637.8	105.7
638.0	103.2
638.2	102.1
638.4	101.5
638.6	101.9
638.8	100.4
639.0	98.55
639.2	97.56
639.4	97.63
639.6	96.99
639.8	96.27
640.0	95.00
640.2	94.50
640.4	94.22
640.6	93.97
640.8	94.01
641.0	93.89
641.2	93.33
641.4	93.64
641.6	92.73
641.8	91.03
642.0	89.83
642.2	88.42
642.4	86.99
642.6	87.20
642.8	86.43
643.0	85.60
643.2	85.30
643.4	85.10
643.6	84.85
643.8	84.40
644.0	83.61
644.2	82.85
644.4	84.02
644.6	84.95
644.8	84.81
645.0	83.47
645.2	82.32
645.4	81.53
645.6	81.83
645.8	81.48
646.0	80.29
646.2	78.99
646.4	78.13
646.6	78.95
646.8	78.89
647.0	78.69
647.2	77.31
647.4	76.04
647.6	74.24
647.8	73.62
648.0	73.49
648.2	74.31
648.4	74.09
648.6	75.03
648.8	73.93
649.0	72.10
649.2	70.57
649.4	70.85
649.6	69.74
649.8	69.91
650.0	69.07
650.2	68.08
650.4	67.01
650.6	66.12
650.8	65.12
651.0	65.51
651.2	65.16
651.4	65.78
651.6	66.03
651.8	65.00
652.0	65.45
652.2	65.46
652.4	64.08
652.6	63.57
652.8	63.03
653.0	62.50
653.2	61.91
653.4	61.57
653.6	61.83
653.8	61.71
654.0	62.60
654.2	62.17
654.4	60.00
654.6	58.32
654.8	57.41
655.0	56.71
655.2	57.78
655.4	58.05
655.6	58.30
655.8	58.46
656.0	58.35
656.2	56.93
656.4	55.77
656.6	54.60
656.8	54.59
657.0	55.61
657.2	55.69
657.4	53.95
657.6	52.97
657.8	51.51
658.0	50.65
658.2	51.60
658.4	51.99
658.6	52.06
658.8	51.74
659.0	52.03
659.2	51.91
659.4	51.62
659.6	50.62
659.8	49.91
660.0	48.66
660.2	48.79
660.4	49.56
660.6	49.44
660.8	48.38
661.0	47.83
661.2	46.46
661.4	45.64
661.6	46.42
661.8	47.02
662.0	46.51
662.2	46.02
662.4	45.25
662.6	44.73
662.8	44.66
663.0	45.06
663.2	44.48
663.4	43.19
663.6	42.53
663.8	41.44
664.0	41.51
664.2	41.94
664.4	43.01
664.6	43.29
664.8	43.12
665.0	42.90
665.2	42.75
665.4	42.12
665.6	41.95
665.8	41.51
666.0	40.12
666.2	40.15
666.4	40.14
666.6	39.79
666.8	39.84
667.0	39.18
667.2	38.34
667.4	39.37
667.6	39.82
667.8	39.15
668.0	38.86
668.2	37.18
668.4	36.11
668.6	36.66
668.8	36.31
669.0	36.32
669.2	36.80
669.4	35.99
669.6	35.85
669.8	36.08
670.0	35.25
670.2	34.72
670.4	34.70
670.6	34.10
670.8	34.43
671.0	34.46
671.2	34.87
671.4	34.60
671.6	34.38
671.8	33.68
672.0	33.24
672.2	33.00
672.4	32.94
672.6	33.04
672.8	32.84
673.0	31.95
673.2	31.47
673.4	31.26
673.6	31.35
673.8	32.05
674.0	32.01
674.2	30.95
674.4	30.40
674.6	29.96
674.8	30.88
675.0	31.08
675.2	30.37
675.4	29.37
675.6	28.72
675.8	28.56
676.0	29.01
676.2	29.00
676.4	28.10
676.6	27.57
676.8	27.80
677.0	28.47
677.2	27.90
677.4	27.96
677.6	27.68
677.8	27.60
678.0	27.91
678.2	27.94
678.4	27.19
678.6	26.05
678.8	26.51
679.0	26.43
679.2	26.61
679.4	26.64
679.6	26.58
679.8	26.30
680.0	25.73

