Sample:	'20211010A(EM)
File name:	B-CDS 100.FDS
Run date:	'10:17:52, 06/08/2023
Operator:	Administrator
Comment:	'

Instrument
Model:	F-4700 FL Spectrophotometer
Serial number:	2019-001
ROM Version:	5J24010 00

Instrument parameters
Measurement type:	Wavelength scan
Scan mode:	Emission
Data mode:	Fluorescence
EX WL:	350.0 nm
EM  Start WL:	370.0 nm
EM  End WL:	680.0 nm
Scan speed:	1200 nm/min
Delay:	0.0 s
EX Slit:	10.0 nm
EM Slit:	10.0 nm
PMT Voltage:	550 V
Response:	0.002 s
Corrected spectra:	Off
Shutter control:	On

Processing performed
Savitsky-Golay smoothed
Smoothing order:	3
Number of points:	7
Number of times:	1

Peak integration
Integration method:	Rectangular
Sensitivity:	1
Threshold:	1.000

Peaks
No.	Start(nm)	Apex(nm)	End(nm)	Height(Data)	Valley(nm)	Valley(Data)
1	370.0	371.6	373.0	4.616	373.0	3.063
2	373.0	376.8	377.4	5.194	377.4	3.873
3	377.4	394.0	394.6	9.803	394.6	8.752
4	394.6	486.2	487.0	3708	487.0	3694
5	487.0	488.6	489.2	3730	489.2	3703
6	489.2	490.8	491.8	3756	491.8	3698
7	491.8	492.6	494.2	3734	494.2	3705
8	494.2	494.6	663.8	3721	663.8	51.27
9	663.8	664.6	667.4	56.81	667.4	46.39
10	667.4	668.2	676.8	49.34	676.8	33.18
11	676.8	677.6	680.0	36.28	680.0	32.25

Data points
nm	Data
370.0	3.487
370.2	3.876
370.4	4.183
370.6	4.389
370.8	4.442
371.0	4.477
371.2	4.302
371.4	4.186
371.6	4.616
371.8	4.562
372.0	4.331
372.2	3.842
372.4	3.502
372.6	3.161
372.8	3.186
373.0	3.063
373.2	3.154
373.4	3.795
373.6	4.150
373.8	4.277
374.0	4.033
374.2	3.871
374.4	4.182
374.6	4.771
374.8	4.754
375.0	4.641
375.2	4.227
375.4	3.969
375.6	4.631
375.8	4.314
376.0	4.495
376.2	4.572
376.4	4.868
376.6	4.925
376.8	5.194
377.0	4.454
377.2	4.009
377.4	3.873
377.6	4.191
377.8	4.480
378.0	4.854
378.2	4.916
378.4	4.817
378.6	4.878
378.8	4.985
379.0	5.136
379.2	5.301
379.4	4.928
379.6	4.707
379.8	4.425
380.0	4.301
380.2	4.544
380.4	4.699
380.6	4.645
380.8	5.067
381.0	5.245
381.2	5.255
381.4	5.455
381.6	5.347
381.8	5.148
382.0	5.414
382.2	5.746
382.4	5.543
382.6	5.223
382.8	5.216
383.0	5.337
383.2	5.498
383.4	6.087
383.6	5.984
383.8	5.647
384.0	5.682
384.2	5.758
384.4	5.539
384.6	5.529
384.8	5.686
385.0	5.307
385.2	5.408
385.4	5.809
385.6	5.963
385.8	5.695
386.0	6.150
386.2	5.905
386.4	6.258
386.6	6.463
386.8	6.834
387.0	6.698
387.2	6.925
387.4	6.992
387.6	6.810
387.8	6.186
388.0	6.140
388.2	6.365
388.4	6.703
388.6	6.885
388.8	7.010
389.0	6.779
389.2	6.635
389.4	6.756
389.6	6.959
389.8	6.645
390.0	6.420
390.2	6.620
390.4	7.009
390.6	6.940
390.8	7.560
391.0	7.826
391.2	7.111
391.4	7.190
391.6	7.216
391.8	6.972
392.0	7.698
392.2	8.136
392.4	8.184
392.6	8.643
392.8	8.643
393.0	8.418
393.2	8.494
393.4	8.667
393.6	9.154
393.8	9.485
394.0	9.803
394.2	9.252
394.4	9.012
394.6	8.752
394.8	9.139
395.0	8.911
395.2	9.477
395.4	9.434
395.6	10.09
395.8	10.13
396.0	10.89
396.2	11.22
396.4	11.12
396.6	11.17
396.8	11.23
397.0	10.80
397.2	10.70
397.4	10.86
397.6	10.80
397.8	11.92
398.0	12.69
398.2	12.76
398.4	12.59
398.6	12.74
398.8	12.95
399.0	14.52
399.2	15.45
399.4	15.60
399.6	15.31
399.8	14.78
400.0	14.60
400.2	15.75
400.4	16.48
400.6	16.85
400.8	16.48
401.0	16.23
401.2	16.86
401.4	17.46
401.6	17.50
401.8	17.57
402.0	17.99
402.2	18.53
402.4	19.69
402.6	20.47
402.8	20.28
403.0	21.19
403.2	22.03
403.4	21.80
403.6	22.85
403.8	23.33
404.0	22.95
404.2	24.07
404.4	24.61
404.6	25.21
404.8	26.79
405.0	27.47
405.2	27.99
405.4	28.69
405.6	28.85
405.8	30.29
406.0	31.76
406.2	33.23
406.4	33.43
406.6	32.86
406.8	33.45
407.0	34.38
407.2	36.19
407.4	37.93
407.6	37.96
407.8	38.55
408.0	41.25
408.2	41.45
408.4	43.54
408.6	44.44
408.8	45.52
409.0	46.69
409.2	49.08
409.4	50.22
409.6	52.21
409.8	53.12
410.0	54.46
410.2	55.52
410.4	57.31
410.6	59.88
410.8	63.26
411.0	65.37
411.2	68.43
411.4	70.97
411.6	72.89
411.8	74.08
412.0	77.35
412.2	79.80
412.4	82.69
412.6	84.79
412.8	86.20
413.0	87.21
413.2	90.48
413.4	93.65
413.6	95.99
413.8	98.62
414.0	101.3
414.2	106.1
414.4	108.7
414.6	111.2
414.8	115.3
415.0	119.1
415.2	124.5
415.4	131.3
415.6	134.5
415.8	137.5
416.0	139.9
416.2	140.8
416.4	146.5
416.6	151.9
416.8	159.9
417.0	166.0
417.2	170.8
417.4	176.2
417.6	182.2
417.8	183.2
418.0	186.5
418.2	188.6
418.4	192.8
418.6	202.2
418.8	211.9
419.0	218.2
419.2	222.7
419.4	226.3
419.6	229.9
419.8	236.6
420.0	246.4
420.2	255.4
420.4	264.7
420.6	268.7
420.8	271.2
421.0	275.8
421.2	281.4
421.4	288.0
421.6	297.5
421.8	303.5
422.0	312.3
422.2	322.7
422.4	329.4
422.6	335.3
422.8	337.2
423.0	347.4
423.2	357.3
423.4	367.7
423.6	373.6
423.8	379.5
424.0	380.2
424.2	390.8
424.4	397.2
424.6	407.2
424.8	416.0
425.0	425.9
425.2	435.5
425.4	446.9
425.6	454.5
425.8	467.4
426.0	477.5
426.2	488.2
426.4	494.4
426.6	500.2
426.8	506.8
427.0	517.9
427.2	527.3
427.4	539.5
427.6	548.9
427.8	557.9
428.0	572.4
428.2	579.2
428.4	586.6
428.6	593.3
428.8	600.9
429.0	609.3
429.2	623.0
429.4	631.7
429.6	642.6
429.8	655.0
430.0	663.5
430.2	673.7
430.4	681.3
430.6	694.2
430.8	703.7
431.0	713.9
431.2	715.7
431.4	721.7
431.6	728.1
431.8	745.0
432.0	762.1
432.2	771.9
432.4	775.0
432.6	781.1
432.8	789.2
433.0	801.6
433.2	820.9
433.4	831.0
433.6	844.9
433.8	852.4
434.0	859.5
434.2	868.9
434.4	876.0
434.6	884.5
434.8	894.4
435.0	902.1
435.2	907.9
435.4	920.0
435.6	927.6
435.8	940.4
436.0	950.3
436.2	958.0
436.4	965.8
436.6	973.8
436.8	981.1
437.0	987.2
437.2	998.2
437.4	1006
437.6	1022
437.8	1034
438.0	1040
438.2	1046
438.4	1053
438.6	1061
438.8	1076
439.0	1093
439.2	1108
439.4	1113
439.6	1120
439.8	1127
440.0	1130
440.2	1139
440.4	1149
440.6	1156
440.8	1169
441.0	1185
441.2	1191
441.4	1197
441.6	1199
441.8	1206
442.0	1208
442.2	1222
442.4	1235
442.6	1251
442.8	1260
443.0	1268
443.2	1268
443.4	1278
443.6	1290
443.8	1304
444.0	1312
444.2	1319
444.4	1320
444.6	1327
444.8	1340
445.0	1351
445.2	1361
445.4	1372
445.6	1381
445.8	1385
446.0	1390
446.2	1408
446.4	1418
446.6	1434
446.8	1440
447.0	1440
447.2	1447
447.4	1465
447.6	1472
447.8	1480
448.0	1486
448.2	1494
448.4	1505
448.6	1514
448.8	1523
449.0	1532
449.2	1539
449.4	1549
449.6	1560
449.8	1574
450.0	1589
450.2	1595
450.4	1604
450.6	1612
450.8	1620
451.0	1633
451.2	1646
451.4	1649
451.6	1674
451.8	1691
452.0	1703
452.2	1708
452.4	1714
452.6	1721
452.8	1742
453.0	1761
453.2	1773
453.4	1779
453.6	1786
453.8	1792
454.0	1800
454.2	1814
454.4	1827
454.6	1839
454.8	1851
455.0	1861
455.2	1880
455.4	1897
455.6	1916
455.8	1928
456.0	1936
456.2	1942
456.4	1957
456.6	1968
456.8	1980
457.0	1991
457.2	2009
457.4	2015
457.6	2035
457.8	2061
458.0	2078
458.2	2091
458.4	2104
458.6	2106
458.8	2119
459.0	2145
459.2	2161
459.4	2186
459.6	2208
459.8	2226
460.0	2233
460.2	2240
460.4	2242
460.6	2255
460.8	2266
461.0	2282
461.2	2300
461.4	2324
461.6	2349
461.8	2362
462.0	2367
462.2	2374
462.4	2382
462.6	2396
462.8	2412
463.0	2424
463.2	2445
463.4	2463
463.6	2480
463.8	2499
464.0	2509
464.2	2522
464.4	2539
464.6	2559
464.8	2576
465.0	2589
465.2	2608
465.4	2626
465.6	2639
465.8	2655
466.0	2675
466.2	2684
466.4	2696
466.6	2716
466.8	2729
467.0	2738
467.2	2752
467.4	2759
467.6	2769
467.8	2788
468.0	2798
468.2	2809
468.4	2821
468.6	2829
468.8	2843
469.0	2854
469.2	2864
469.4	2887
469.6	2910
469.8	2922
470.0	2939
470.2	2952
470.4	2974
470.6	2989
470.8	3002
471.0	3015
471.2	3029
471.4	3034
471.6	3049
471.8	3051
472.0	3065
472.2	3085
472.4	3103
472.6	3118
472.8	3138
473.0	3150
473.2	3165
473.4	3182
473.6	3188
473.8	3193
474.0	3204
474.2	3214
474.4	3221
474.6	3243
474.8	3256
475.0	3262
475.2	3266
475.4	3277
475.6	3277
475.8	3292
476.0	3301
476.2	3310
476.4	3330
476.6	3355
476.8	3359
477.0	3360
477.2	3362
477.4	3377
477.6	3396
477.8	3418
478.0	3427
478.2	3436
478.4	3438
478.6	3437
478.8	3437
479.0	3454
479.2	3476
479.4	3491
479.6	3495
479.8	3486
480.0	3494
480.2	3509
480.4	3525
480.6	3532
480.8	3539
481.0	3540
481.2	3547
481.4	3550
481.6	3546
481.8	3549
482.0	3558
482.2	3573
482.4	3591
482.6	3606
482.8	3602
483.0	3608
483.2	3613
483.4	3611
483.6	3613
483.8	3626
484.0	3635
484.2	3646
484.4	3646
484.6	3649
484.8	3653
485.0	3673
485.2	3689
485.4	3690
485.6	3689
485.8	3689
486.0	3702
486.2	3708
486.4	3703
486.6	3699
486.8	3699
487.0	3694
487.2	3695
487.4	3702
487.6	3696
487.8	3703
488.0	3704
488.2	3725
488.4	3729
488.6	3730
488.8	3715
489.0	3710
489.2	3703
489.4	3717
489.6	3726
489.8	3726
490.0	3725
490.2	3732
490.4	3742
490.6	3745
490.8	3756
491.0	3748
491.2	3734
491.4	3721
491.6	3710
491.8	3698
492.0	3705
492.2	3716
492.4	3727
492.6	3734
492.8	3731
493.0	3709
493.2	3706
493.4	3717
493.6	3709
493.8	3710
494.0	3710
494.2	3705
494.4	3713
494.6	3721
494.8	3710
495.0	3705
495.2	3693
495.4	3693
495.6	3689
495.8	3677
496.0	3667
496.2	3656
496.4	3652
496.6	3656
496.8	3652
497.0	3645
497.2	3638
497.4	3622
497.6	3618
497.8	3619
498.0	3623
498.2	3631
498.4	3635
498.6	3617
498.8	3608
499.0	3603
499.2	3603
499.4	3601
499.6	3611
499.8	3599
500.0	3598
500.2	3592
500.4	3594
500.6	3591
500.8	3590
501.0	3573
501.2	3556
501.4	3542
501.6	3539
501.8	3531
502.0	3528
502.2	3521
502.4	3515
502.6	3508
502.8	3496
503.0	3488
503.2	3473
503.4	3468
503.6	3475
503.8	3471
504.0	3455
504.2	3445
504.4	3427
504.6	3417
504.8	3424
505.0	3426
505.2	3414
505.4	3396
505.6	3383
505.8	3369
506.0	3380
506.2	3376
506.4	3374
506.6	3352
506.8	3334
507.0	3319
507.2	3327
507.4	3317
507.6	3310
507.8	3293
508.0	3282
508.2	3275
508.4	3288
508.6	3285
508.8	3280
509.0	3270
509.2	3245
509.4	3225
509.6	3201
509.8	3186
510.0	3182
510.2	3189
510.4	3188
510.6	3181
510.8	3156
511.0	3142
511.2	3133
511.4	3135
511.6	3135
511.8	3133
512.0	3130
512.2	3121
512.4	3106
512.6	3082
512.8	3058
513.0	3052
513.2	3053
513.4	3063
513.6	3065
513.8	3051
514.0	3036
514.2	3022
514.4	3011
514.6	3009
514.8	2998
515.0	2986
515.2	2972
515.4	2958
515.6	2951
515.8	2945
516.0	2940
516.2	2938
516.4	2919
516.6	2906
516.8	2895
517.0	2892
517.2	2882
517.4	2869
517.6	2852
517.8	2845
518.0	2848
518.2	2851
518.4	2832
518.6	2816
518.8	2811
519.0	2808
519.2	2800
519.4	2782
519.6	2756
519.8	2746
520.0	2749
520.2	2751
520.4	2743
520.6	2728
520.8	2711
521.0	2705
521.2	2695
521.4	2689
521.6	2683
521.8	2674
522.0	2673
522.2	2674
522.4	2663
522.6	2658
522.8	2643
523.0	2623
523.2	2620
523.4	2613
523.6	2604
523.8	2609
524.0	2603
524.2	2591
524.4	2587
524.6	2570
524.8	2559
525.0	2553
525.2	2542
525.4	2526
525.6	2516
525.8	2510
526.0	2512
526.2	2500
526.4	2503
526.6	2501
526.8	2494
527.0	2492
527.2	2483
527.4	2454
527.6	2449
527.8	2441
528.0	2438
528.2	2432
528.4	2431
528.6	2420
528.8	2410
529.0	2405
529.2	2398
529.4	2383
529.6	2379
529.8	2368
530.0	2357
530.2	2365
530.4	2356
530.6	2352
530.8	2343
531.0	2324
531.2	2310
531.4	2305
531.6	2282
531.8	2275
532.0	2264
532.2	2260
532.4	2265
532.6	2267
532.8	2252
533.0	2245
533.2	2239
533.4	2236
533.6	2233
533.8	2229
534.0	2215
534.2	2206
534.4	2192
534.6	2180
534.8	2166
535.0	2157
535.2	2154
535.4	2150
535.6	2138
535.8	2131
536.0	2120
536.2	2109
536.4	2104
536.6	2107
536.8	2102
537.0	2099
537.2	2095
537.4	2084
537.6	2073
537.8	2072
538.0	2061
538.2	2054
538.4	2043
538.6	2029
538.8	2016
539.0	2010
539.2	2006
539.4	2008
539.6	1999
539.8	1987
540.0	1974
540.2	1972
540.4	1965
540.6	1960
540.8	1947
541.0	1942
541.2	1936
541.4	1936
541.6	1927
541.8	1921
542.0	1914
542.2	1910
542.4	1902
542.6	1887
542.8	1873
543.0	1864
543.2	1851
543.4	1848
543.6	1850
543.8	1840
544.0	1836
544.2	1823
544.4	1807
544.6	1803
544.8	1801
545.0	1787
545.2	1779
545.4	1767
545.6	1754
545.8	1749
546.0	1744
546.2	1736
546.4	1722
546.6	1723
546.8	1720
547.0	1722
547.2	1717
547.4	1706
547.6	1682
547.8	1675
548.0	1667
548.2	1664
548.4	1665
548.6	1656
548.8	1640
549.0	1622
549.2	1608
549.4	1598
549.6	1593
549.8	1594
550.0	1592
550.2	1587
550.4	1584
550.6	1579
550.8	1562
551.0	1554
551.2	1543
551.4	1534
551.6	1530
551.8	1519
552.0	1511
552.2	1508
552.4	1500
552.6	1492
552.8	1489
553.0	1481
553.2	1478
553.4	1471
553.6	1465
553.8	1460
554.0	1450
554.2	1437
554.4	1425
554.6	1412
554.8	1410
555.0	1405
555.2	1401
555.4	1402
555.6	1404
555.8	1398
556.0	1386
556.2	1366
556.4	1353
556.6	1345
556.8	1341
557.0	1337
557.2	1331
557.4	1325
557.6	1318
557.8	1308
558.0	1304
558.2	1297
558.4	1297
558.6	1297
558.8	1289
559.0	1280
559.2	1270
559.4	1255
559.6	1253
559.8	1254
560.0	1249
560.2	1245
560.4	1231
560.6	1219
560.8	1213
561.0	1209
561.2	1204
561.4	1199
561.6	1189
561.8	1177
562.0	1174
562.2	1171
562.4	1170
562.6	1163
562.8	1159
563.0	1149
563.2	1142
563.4	1129
563.6	1126
563.8	1116
564.0	1115
564.2	1121
564.4	1116
564.6	1107
564.8	1096
565.0	1083
565.2	1077
565.4	1078
565.6	1075
565.8	1071
566.0	1062
566.2	1053
566.4	1053
566.6	1042
566.8	1036
567.0	1027
567.2	1028
567.4	1021
567.6	1025
567.8	1023
568.0	1018
568.2	1008
568.4	1001
568.6	986.9
568.8	982.2
569.0	984.6
569.2	982.1
569.4	977.2
569.6	972.3
569.8	969.1
570.0	967.4
570.2	966.2
570.4	959.6
570.6	948.3
570.8	946.1
571.0	945.0
571.2	939.5
571.4	930.9
571.6	924.5
571.8	912.1
572.0	910.2
572.2	906.2
572.4	900.9
572.6	898.3
572.8	898.8
573.0	891.0
573.2	883.6
573.4	876.5
573.6	880.8
573.8	879.8
574.0	881.9
574.2	881.9
574.4	874.7
574.6	862.1
574.8	857.6
575.0	849.1
575.2	844.0
575.4	842.8
575.6	834.1
575.8	823.0
576.0	818.8
576.2	819.5
576.4	813.9
576.6	810.0
576.8	806.0
577.0	805.2
577.2	806.9
577.4	804.5
577.6	798.9
577.8	794.0
578.0	790.1
578.2	782.2
578.4	774.9
578.6	769.4
578.8	768.1
579.0	764.9
579.2	767.1
579.4	763.5
579.6	758.4
579.8	755.2
580.0	749.0
580.2	745.2
580.4	746.0
580.6	742.4
580.8	737.7
581.0	730.2
581.2	721.3
581.4	717.8
581.6	713.6
581.8	710.2
582.0	706.7
582.2	701.4
582.4	694.6
582.6	689.2
582.8	690.2
583.0	692.0
583.2	688.2
583.4	686.6
583.6	681.2
583.8	675.8
584.0	669.8
584.2	668.3
584.4	660.0
584.6	657.8
584.8	655.5
585.0	654.3
585.2	647.9
585.4	646.7
585.6	641.7
585.8	638.8
586.0	639.9
586.2	640.7
586.4	639.7
586.6	635.5
586.8	631.5
587.0	625.1
587.2	621.6
587.4	617.4
587.6	610.0
587.8	602.4
588.0	599.5
588.2	595.9
588.4	595.9
588.6	597.3
588.8	593.4
589.0	586.9
589.2	584.6
589.4	578.8
589.6	578.9
589.8	575.6
590.0	575.7
590.2	570.5
590.4	570.3
590.6	564.2
590.8	561.6
591.0	554.0
591.2	550.9
591.4	545.0
591.6	543.7
591.8	538.7
592.0	539.2
592.2	537.0
592.4	535.7
592.6	531.3
592.8	530.2
593.0	528.3
593.2	524.7
593.4	520.5
593.6	516.9
593.8	512.5
594.0	510.0
594.2	505.6
594.4	497.1
594.6	495.0
594.8	492.8
595.0	493.9
595.2	498.5
595.4	496.3
595.6	492.8
595.8	486.0
596.0	480.8
596.2	475.5
596.4	473.0
596.6	469.0
596.8	466.6
597.0	462.0
597.2	464.9
597.4	461.7
597.6	456.8
597.8	451.7
598.0	450.2
598.2	447.5
598.4	449.1
598.6	446.0
598.8	442.2
599.0	439.9
599.2	436.9
599.4	431.6
599.6	428.4
599.8	425.7
600.0	424.8
600.2	426.7
600.4	424.0
600.6	421.1
600.8	421.4
601.0	417.5
601.2	415.3
601.4	411.8
601.6	402.5
601.8	397.9
602.0	397.4
602.2	394.8
602.4	400.9
602.6	401.8
602.8	394.5
603.0	391.9
603.2	386.3
603.4	384.2
603.6	387.1
603.8	385.0
604.0	381.6
604.2	381.3
604.4	377.5
604.6	374.6
604.8	369.3
605.0	363.0
605.2	362.3
605.4	363.5
605.6	363.8
605.8	362.2
606.0	358.8
606.2	353.3
606.4	351.4
606.6	349.5
606.8	347.8
607.0	346.2
607.2	346.5
607.4	344.9
607.6	342.6
607.8	337.7
608.0	334.2
608.2	330.1
608.4	330.7
608.6	327.8
608.8	326.9
609.0	323.2
609.2	322.1
609.4	319.0
609.6	316.5
609.8	312.5
610.0	312.1
610.2	309.5
610.4	308.8
610.6	309.2
610.8	307.7
611.0	308.0
611.2	307.0
611.4	302.2
611.6	298.8
611.8	295.6
612.0	293.5
612.2	289.1
612.4	287.6
612.6	287.7
612.8	290.9
613.0	290.4
613.2	287.6
613.4	282.2
613.6	279.1
613.8	275.8
614.0	275.9
614.2	274.2
614.4	273.3
614.6	274.9
614.8	274.6
615.0	271.2
615.2	269.3
615.4	265.5
615.6	261.4
615.8	263.6
616.0	263.8
616.2	262.0
616.4	261.7
616.6	259.7
616.8	255.2
617.0	257.7
617.2	259.1
617.4	258.5
617.6	257.0
617.8	254.6
618.0	248.4
618.2	243.8
618.4	243.3
618.6	241.7
618.8	238.9
619.0	237.0
619.2	235.1
619.4	235.8
619.6	236.7
619.8	233.0
620.0	230.6
620.2	227.0
620.4	226.7
620.6	228.0
620.8	227.5
621.0	224.4
621.2	223.0
621.4	221.8
621.6	222.1
621.8	223.2
622.0	223.8
622.2	221.4
622.4	219.3
622.6	214.4
622.8	210.7
623.0	208.9
623.2	209.4
623.4	210.3
623.6	210.3
623.8	206.8
624.0	204.4
624.2	202.7
624.4	203.7
624.6	205.6
624.8	203.5
625.0	204.7
625.2	203.5
625.4	200.7
625.6	198.5
625.8	195.0
626.0	187.9
626.2	187.3
626.4	186.6
626.6	187.1
626.8	189.3
627.0	187.9
627.2	183.8
627.4	183.3
627.6	183.4
627.8	182.9
628.0	180.8
628.2	178.2
628.4	177.9
628.6	175.7
628.8	174.4
629.0	171.3
629.2	168.4
629.4	168.8
629.6	171.8
629.8	171.3
630.0	171.6
630.2	170.6
630.4	169.0
630.6	170.5
630.8	171.4
631.0	169.6
631.2	166.5
631.4	161.3
631.6	159.3
631.8	161.1
632.0	160.9
632.2	158.9
632.4	155.2
632.6	150.3
632.8	150.3
633.0	150.8
633.2	151.3
633.4	151.6
633.6	150.7
633.8	148.7
634.0	148.3
634.2	147.0
634.4	145.0
634.6	143.8
634.8	142.4
635.0	140.9
635.2	139.0
635.4	137.3
635.6	137.5
635.8	139.3
636.0	140.3
636.2	141.0
636.4	137.0
636.6	134.2
636.8	133.8
637.0	134.2
637.2	135.8
637.4	137.1
637.6	135.5
637.8	133.2
638.0	130.5
638.2	129.4
638.4	130.5
638.6	130.2
638.8	129.7
639.0	127.5
639.2	126.5
639.4	125.4
639.6	124.3
639.8	123.3
640.0	121.9
640.2	121.5
640.4	122.0
640.6	122.2
640.8	120.5
641.0	120.1
641.2	118.8
641.4	116.6
641.6	115.2
641.8	114.1
642.0	113.7
642.2	113.8
642.4	114.1
642.6	112.1
642.8	111.8
643.0	110.2
643.2	109.4
643.4	107.4
643.6	109.2
643.8	109.7
644.0	109.7
644.2	108.0
644.4	105.3
644.6	102.8
644.8	102.9
645.0	101.4
645.2	101.0
645.4	100.5
645.6	100.1
645.8	101.6
646.0	101.8
646.2	101.3
646.4	100.8
646.6	98.19
646.8	95.96
647.0	94.11
647.2	93.67
647.4	93.69
647.6	94.43
647.8	94.59
648.0	93.83
648.2	91.22
648.4	90.66
648.6	87.88
648.8	88.69
649.0	88.49
649.2	87.75
649.4	89.15
649.6	90.38
649.8	88.85
650.0	87.71
650.2	86.14
650.4	86.65
650.6	87.78
650.8	87.15
651.0	84.86
651.2	82.15
651.4	80.67
651.6	81.07
651.8	82.21
652.0	83.81
652.2	83.59
652.4	83.32
652.6	82.16
652.8	80.90
653.0	79.01
653.2	78.86
653.4	77.12
653.6	75.36
653.8	74.91
654.0	73.79
654.2	74.34
654.4	76.89
654.6	77.41
654.8	75.96
655.0	74.76
655.2	72.01
655.4	72.30
655.6	72.45
655.8	71.89
656.0	71.77
656.2	72.64
656.4	72.42
656.6	71.35
656.8	68.87
657.0	67.28
657.2	67.69
657.4	67.56
657.6	66.60
657.8	65.40
658.0	64.72
658.2	64.47
658.4	66.26
658.6	65.85
658.8	64.78
659.0	63.30
659.2	63.38
659.4	61.01
659.6	60.80
659.8	60.07
660.0	59.86
660.2	59.47
660.4	61.75
660.6	61.22
660.8	60.35
661.0	58.37
661.2	57.24
661.4	56.15
661.6	56.26
661.8	57.42
662.0	57.33
662.2	57.33
662.4	57.26
662.6	55.74
662.8	55.04
663.0	56.24
663.2	56.06
663.4	56.19
663.6	53.98
663.8	51.27
664.0	51.31
664.2	52.85
664.4	55.31
664.6	56.81
664.8	55.64
665.0	52.63
665.2	51.49
665.4	51.50
665.6	52.25
665.8	52.18
666.0	52.04
666.2	49.56
666.4	49.86
666.6	50.78
666.8	50.84
667.0	50.83
667.2	48.95
667.4	46.39
667.6	46.70
667.8	47.23
668.0	47.86
668.2	49.34
668.4	48.20
668.6	47.49
668.8	48.74
669.0	49.32
669.2	47.91
669.4	46.57
669.6	45.16
669.8	44.47
670.0	45.58
670.2	45.10
670.4	43.86
670.6	43.37
670.8	42.86
671.0	42.61
671.2	41.91
671.4	41.30
671.6	41.52
671.8	41.62
672.0	40.38
672.2	40.01
672.4	39.73
672.6	40.94
672.8	41.64
673.0	40.92
673.2	39.31
673.4	39.41
673.6	40.02
673.8	40.84
674.0	40.41
674.2	39.05
674.4	37.32
674.6	37.13
674.8	36.59
675.0	36.63
675.2	36.29
675.4	35.97
675.6	35.85
675.8	36.12
676.0	36.31
676.2	36.19
676.4	35.42
676.6	33.49
676.8	33.18
677.0	33.86
677.2	35.11
677.4	35.93
677.6	36.28
677.8	34.58
678.0	34.35
678.2	34.20
678.4	32.80
678.6	31.88
678.8	31.57
679.0	31.73
679.2	32.61
679.4	34.08
679.6	34.53
679.8	34.03
680.0	32.25

