Sample:	'20211010A(EM)
File name:	B-CDS 3.FDS
Run date:	'09:15:57, 06/08/2023
Operator:	Administrator
Comment:	'

Instrument
Model:	F-4700 FL Spectrophotometer
Serial number:	2019-001
ROM Version:	5J24010 00

Instrument parameters
Measurement type:	Wavelength scan
Scan mode:	Emission
Data mode:	Fluorescence
EX WL:	350.0 nm
EM  Start WL:	370.0 nm
EM  End WL:	680.0 nm
Scan speed:	1200 nm/min
Delay:	0.0 s
EX Slit:	10.0 nm
EM Slit:	10.0 nm
PMT Voltage:	550 V
Response:	0.002 s
Corrected spectra:	Off
Shutter control:	On

Processing performed
Savitsky-Golay smoothed
Smoothing order:	3
Number of points:	7
Number of times:	1

Peak integration
Integration method:	Rectangular
Sensitivity:	1
Threshold:	1.000

Peaks
No.	Start(nm)	Apex(nm)	End(nm)	Height(Data)	Valley(nm)	Valley(Data)
1	370.0	374.6	376.8	9.544	376.8	8.034
2	376.8	377.6	378.4	10.30	378.4	8.299
3	378.4	382.0	383.8	9.672	383.8	8.457
4	383.8	391.0	391.4	12.35	391.4	10.85
5	391.4	392.2	393.2	13.50	393.2	11.72
6	393.2	394.2	394.8	15.33	394.8	13.48
7	394.8	490.4	673.8	5148	673.8	64.63
8	673.8	674.4	680.0	66.73	680.0	55.06

Data points
nm	Data
370.0	9.069
370.2	8.773
370.4	8.513
370.6	8.330
370.8	8.401
371.0	8.278
371.2	8.231
371.4	8.466
371.6	9.110
371.8	8.924
372.0	8.903
372.2	8.367
372.4	7.883
372.6	7.811
372.8	7.910
373.0	7.968
373.2	8.152
373.4	8.660
373.6	8.231
373.8	8.698
374.0	8.425
374.2	8.763
374.4	9.278
374.6	9.544
374.8	9.176
375.0	9.103
375.2	8.736
375.4	8.966
375.6	9.223
375.8	8.814
376.0	8.738
376.2	8.436
376.4	8.661
376.6	8.495
376.8	8.034
377.0	8.223
377.2	8.862
377.4	9.577
377.6	10.30
377.8	9.240
378.0	8.621
378.2	8.383
378.4	8.299
378.6	8.777
378.8	9.075
379.0	8.754
379.2	9.241
379.4	8.814
379.6	8.770
379.8	9.264
380.0	9.162
380.2	9.436
380.4	9.287
380.6	9.124
380.8	9.432
381.0	9.459
381.2	9.358
381.4	9.394
381.6	9.017
381.8	9.329
382.0	9.672
382.2	9.494
382.4	9.166
382.6	9.140
382.8	9.147
383.0	9.352
383.2	9.152
383.4	9.040
383.6	8.683
383.8	8.457
384.0	8.463
384.2	8.868
384.4	9.146
384.6	9.440
384.8	9.580
385.0	9.334
385.2	9.350
385.4	9.979
385.6	10.34
385.8	10.37
386.0	10.02
386.2	9.736
386.4	9.718
386.6	9.965
386.8	10.26
387.0	10.18
387.2	10.08
387.4	10.53
387.6	10.94
387.8	10.59
388.0	10.24
388.2	9.992
388.4	10.14
388.6	10.32
388.8	10.25
389.0	10.62
389.2	10.66
389.4	10.93
389.6	11.43
389.8	11.24
390.0	10.72
390.2	11.46
390.4	11.95
390.6	12.01
390.8	12.31
391.0	12.35
391.2	11.61
391.4	10.85
391.6	11.02
391.8	11.66
392.0	12.33
392.2	13.50
392.4	13.46
392.6	12.91
392.8	12.26
393.0	12.37
393.2	11.72
393.4	12.28
393.6	12.76
393.8	14.02
394.0	14.78
394.2	15.33
394.4	14.45
394.6	13.76
394.8	13.48
395.0	13.66
395.2	14.02
395.4	14.23
395.6	14.32
395.8	14.43
396.0	14.21
396.2	15.29
396.4	16.13
396.6	16.00
396.8	16.69
397.0	16.83
397.2	16.61
397.4	17.96
397.6	19.04
397.8	19.30
398.0	19.80
398.2	19.56
398.4	20.26
398.6	20.53
398.8	21.17
399.0	21.46
399.2	21.47
399.4	21.46
399.6	22.39
399.8	22.67
400.0	23.02
400.2	24.22
400.4	25.05
400.6	25.10
400.8	25.78
401.0	26.53
401.2	27.43
401.4	28.93
401.6	29.97
401.8	30.53
402.0	31.88
402.2	33.43
402.4	33.83
402.6	34.66
402.8	35.85
403.0	37.35
403.2	38.40
403.4	39.41
403.6	39.93
403.8	41.78
404.0	42.60
404.2	43.75
404.4	44.78
404.6	45.99
404.8	47.28
405.0	48.50
405.2	50.68
405.4	53.18
405.6	55.88
405.8	58.69
406.0	60.43
406.2	62.67
406.4	67.02
406.6	69.20
406.8	69.80
407.0	72.43
407.2	73.70
407.4	76.58
407.6	79.91
407.8	81.82
408.0	84.46
408.2	88.39
408.4	91.67
408.6	95.32
408.8	98.95
409.0	103.5
409.2	109.1
409.4	114.0
409.6	116.6
409.8	118.6
410.0	120.8
410.2	125.5
410.4	129.3
410.6	134.5
410.8	139.5
411.0	146.1
411.2	151.6
411.4	160.0
411.6	163.5
411.8	167.8
412.0	173.8
412.2	180.5
412.4	186.4
412.6	193.6
412.8	198.2
413.0	205.3
413.2	210.5
413.4	216.3
413.6	222.9
413.8	228.9
414.0	237.1
414.2	245.6
414.4	253.3
414.6	263.6
414.8	272.6
415.0	279.1
415.2	286.8
415.4	291.0
415.6	300.1
415.8	311.6
416.0	321.9
416.2	330.0
416.4	339.2
416.6	347.7
416.8	355.6
417.0	364.7
417.2	369.8
417.4	378.7
417.6	394.7
417.8	412.1
418.0	422.6
418.2	434.6
418.4	436.8
418.6	446.4
418.8	459.0
419.0	466.9
419.2	476.4
419.4	491.8
419.6	505.0
419.8	523.9
420.0	536.2
420.2	540.8
420.4	553.3
420.6	570.6
420.8	587.2
421.0	604.2
421.2	616.7
421.4	621.4
421.6	633.0
421.8	647.3
422.0	659.2
422.2	674.1
422.4	688.2
422.6	704.5
422.8	717.5
423.0	732.2
423.2	744.9
423.4	760.9
423.6	770.2
423.8	786.4
424.0	796.4
424.2	814.6
424.4	831.4
424.6	850.1
424.8	863.9
425.0	879.7
425.2	890.0
425.4	906.5
425.6	920.4
425.8	931.8
426.0	942.7
426.2	963.0
426.4	980.7
426.6	1001
426.8	1020
427.0	1029
427.2	1039
427.4	1054
427.6	1073
427.8	1093
428.0	1113
428.2	1127
428.4	1144
428.6	1154
428.8	1166
429.0	1178
429.2	1194
429.4	1208
429.6	1227
429.8	1247
430.0	1262
430.2	1277
430.4	1292
430.6	1305
430.8	1318
431.0	1334
431.2	1351
431.4	1366
431.6	1382
431.8	1397
432.0	1414
432.2	1427
432.4	1444
432.6	1460
432.8	1482
433.0	1503
433.2	1528
433.4	1537
433.6	1541
433.8	1550
434.0	1570
434.2	1586
434.4	1603
434.6	1613
434.8	1624
435.0	1639
435.2	1660
435.4	1672
435.6	1685
435.8	1703
436.0	1722
436.2	1738
436.4	1749
436.6	1751
436.8	1760
437.0	1777
437.2	1792
437.4	1814
437.6	1830
437.8	1838
438.0	1854
438.2	1874
438.4	1886
438.6	1904
438.8	1916
439.0	1925
439.2	1942
439.4	1963
439.6	1975
439.8	1984
440.0	1988
440.2	1996
440.4	2012
440.6	2036
440.8	2055
441.0	2063
441.2	2069
441.4	2073
441.6	2088
441.8	2106
442.0	2117
442.2	2125
442.4	2139
442.6	2148
442.8	2163
443.0	2176
443.2	2186
443.4	2199
443.6	2219
443.8	2241
444.0	2260
444.2	2272
444.4	2281
444.6	2293
444.8	2299
445.0	2321
445.2	2331
445.4	2338
445.6	2348
445.8	2369
446.0	2380
446.2	2398
446.4	2407
446.6	2415
446.8	2415
447.0	2429
447.2	2444
447.4	2469
447.6	2483
447.8	2501
448.0	2501
448.2	2502
448.4	2507
448.6	2531
448.8	2544
449.0	2570
449.2	2584
449.4	2593
449.6	2591
449.8	2604
450.0	2613
450.2	2629
450.4	2652
450.6	2672
450.8	2679
451.0	2698
451.2	2705
451.4	2719
451.6	2737
451.8	2747
452.0	2761
452.2	2774
452.4	2794
452.6	2822
452.8	2833
453.0	2840
453.2	2848
453.4	2855
453.6	2878
453.8	2904
454.0	2914
454.2	2924
454.4	2927
454.6	2942
454.8	2964
455.0	2983
455.2	3005
455.4	3025
455.6	3047
455.8	3069
456.0	3086
456.2	3090
456.4	3101
456.6	3115
456.8	3136
457.0	3158
457.2	3179
457.4	3179
457.6	3192
457.8	3202
458.0	3212
458.2	3230
458.4	3262
458.6	3282
458.8	3310
459.0	3336
459.2	3351
459.4	3354
459.6	3368
459.8	3377
460.0	3390
460.2	3396
460.4	3396
460.6	3408
460.8	3436
461.0	3463
461.2	3490
461.4	3506
461.6	3519
461.8	3539
462.0	3561
462.2	3580
462.4	3588
462.6	3598
462.8	3607
463.0	3624
463.2	3644
463.4	3662
463.6	3686
463.8	3702
464.0	3715
464.2	3737
464.4	3754
464.6	3763
464.8	3783
465.0	3808
465.2	3842
465.4	3868
465.6	3870
465.8	3877
466.0	3885
466.2	3913
466.4	3942
466.6	3955
466.8	3953
467.0	3967
467.2	3982
467.4	4007
467.6	4028
467.8	4044
468.0	4052
468.2	4064
468.4	4084
468.6	4101
468.8	4113
469.0	4147
469.2	4167
469.4	4183
469.6	4191
469.8	4197
470.0	4196
470.2	4220
470.4	4237
470.6	4256
470.8	4264
471.0	4275
471.2	4290
471.4	4317
471.6	4342
471.8	4365
472.0	4370
472.2	4371
472.4	4388
472.6	4411
472.8	4434
473.0	4454
473.2	4460
473.4	4455
473.6	4459
473.8	4467
474.0	4479
474.2	4500
474.4	4535
474.6	4551
474.8	4573
475.0	4582
475.2	4577
475.4	4582
475.6	4598
475.8	4615
476.0	4626
476.2	4628
476.4	4631
476.6	4652
476.8	4671
477.0	4690
477.2	4694
477.4	4717
477.6	4736
477.8	4751
478.0	4746
478.2	4730
478.4	4727
478.6	4742
478.8	4773
479.0	4791
479.2	4809
479.4	4832
479.6	4856
479.8	4856
480.0	4869
480.2	4872
480.4	4876
480.6	4895
480.8	4895
481.0	4884
481.2	4890
481.4	4905
481.6	4914
481.8	4933
482.0	4934
482.2	4930
482.4	4941
482.6	4951
482.8	4959
483.0	4974
483.2	4985
483.4	4992
483.6	5000
483.8	5010
484.0	5014
484.2	5016
484.4	5011
484.6	5013
484.8	5006
485.0	5026
485.2	5036
485.4	5052
485.6	5051
485.8	5058
486.0	5048
486.2	5056
486.4	5056
486.6	5065
486.8	5065
487.0	5086
487.2	5095
487.4	5109
487.6	5120
487.8	5107
488.0	5095
488.2	5098
488.4	5105
488.6	5108
488.8	5121
489.0	5110
489.2	5111
489.4	5112
489.6	5120
489.8	5113
490.0	5132
490.2	5135
490.4	5148
490.6	5144
490.8	5138
491.0	5126
491.2	5128
491.4	5132
491.6	5132
491.8	5132
492.0	5136
492.2	5134
492.4	5130
492.6	5128
492.8	5112
493.0	5105
493.2	5102
493.4	5109
493.6	5116
493.8	5113
494.0	5107
494.2	5096
494.4	5090
494.6	5090
494.8	5085
495.0	5097
495.2	5093
495.4	5091
495.6	5086
495.8	5082
496.0	5077
496.2	5086
496.4	5070
496.6	5074
496.8	5075
497.0	5088
497.2	5088
497.4	5082
497.6	5066
497.8	5053
498.0	5025
498.2	5003
498.4	4978
498.6	4963
498.8	4970
499.0	4969
499.2	4970
499.4	4980
499.6	4977
499.8	4966
500.0	4951
500.2	4922
500.4	4920
500.6	4927
500.8	4918
501.0	4919
501.2	4900
501.4	4878
501.6	4873
501.8	4861
502.0	4862
502.2	4879
502.4	4869
502.6	4868
502.8	4857
503.0	4824
503.2	4809
503.4	4810
503.6	4793
503.8	4792
504.0	4784
504.2	4772
504.4	4775
504.6	4765
504.8	4755
505.0	4741
505.2	4721
505.4	4708
505.6	4705
505.8	4689
506.0	4690
506.2	4688
506.4	4680
506.6	4655
506.8	4631
507.0	4617
507.2	4605
507.4	4606
507.6	4598
507.8	4585
508.0	4571
508.2	4561
508.4	4554
508.6	4554
508.8	4550
509.0	4531
509.2	4502
509.4	4490
509.6	4483
509.8	4476
510.0	4468
510.2	4466
510.4	4459
510.6	4463
510.8	4448
511.0	4427
511.2	4394
511.4	4393
511.6	4383
511.8	4377
512.0	4362
512.2	4348
512.4	4332
512.6	4330
512.8	4319
513.0	4306
513.2	4285
513.4	4275
513.6	4256
513.8	4247
514.0	4241
514.2	4221
514.4	4205
514.6	4194
514.8	4176
515.0	4166
515.2	4159
515.4	4141
515.6	4116
515.8	4095
516.0	4081
516.2	4080
516.4	4076
516.6	4071
516.8	4068
517.0	4066
517.2	4048
517.4	4036
517.6	4019
517.8	3998
518.0	3991
518.2	3985
518.4	3962
518.6	3953
518.8	3940
519.0	3924
519.2	3913
519.4	3901
519.6	3886
519.8	3887
520.0	3880
520.2	3871
520.4	3858
520.6	3836
520.8	3821
521.0	3817
521.2	3809
521.4	3796
521.6	3781
521.8	3757
522.0	3740
522.2	3732
522.4	3721
522.6	3710
522.8	3698
523.0	3684
523.2	3681
523.4	3682
523.6	3685
523.8	3670
524.0	3652
524.2	3636
524.4	3623
524.6	3617
524.8	3603
525.0	3584
525.2	3572
525.4	3551
525.6	3539
525.8	3542
526.0	3527
526.2	3526
526.4	3527
526.6	3506
526.8	3494
527.0	3488
527.2	3464
527.4	3456
527.6	3442
527.8	3417
528.0	3417
528.2	3418
528.4	3413
528.6	3416
528.8	3397
529.0	3372
529.2	3364
529.4	3353
529.6	3336
529.8	3328
530.0	3325
530.2	3320
530.4	3316
530.6	3307
530.8	3290
531.0	3273
531.2	3262
531.4	3257
531.6	3255
531.8	3246
532.0	3242
532.2	3214
532.4	3197
532.6	3186
532.8	3175
533.0	3164
533.2	3157
533.4	3138
533.6	3145
533.8	3148
534.0	3141
534.2	3130
534.4	3114
534.6	3086
534.8	3075
535.0	3049
535.2	3037
535.4	3029
535.6	3033
535.8	3026
536.0	3019
536.2	3011
536.4	3006
536.6	2994
536.8	2986
537.0	2970
537.2	2952
537.4	2945
537.6	2934
537.8	2932
538.0	2920
538.2	2908
538.4	2898
538.6	2887
538.8	2872
539.0	2870
539.2	2861
539.4	2846
539.6	2832
539.8	2813
540.0	2795
540.2	2794
540.4	2786
540.6	2776
540.8	2770
541.0	2761
541.2	2762
541.4	2749
541.6	2731
541.8	2718
542.0	2712
542.2	2707
542.4	2705
542.6	2680
542.8	2655
543.0	2638
543.2	2634
543.4	2626
543.6	2628
543.8	2623
544.0	2606
544.2	2606
544.4	2596
544.6	2578
544.8	2572
545.0	2560
545.2	2549
545.4	2538
545.6	2537
545.8	2524
546.0	2516
546.2	2505
546.4	2492
546.6	2473
546.8	2470
547.0	2455
547.2	2446
547.4	2430
547.6	2413
547.8	2395
548.0	2382
548.2	2384
548.4	2377
548.6	2362
548.8	2350
549.0	2333
549.2	2330
549.4	2326
549.6	2314
549.8	2303
550.0	2286
550.2	2278
550.4	2273
550.6	2265
550.8	2246
551.0	2230
551.2	2214
551.4	2211
551.6	2210
551.8	2200
552.0	2180
552.2	2165
552.4	2152
552.6	2148
552.8	2147
553.0	2134
553.2	2122
553.4	2115
553.6	2108
553.8	2095
554.0	2089
554.2	2080
554.4	2064
554.6	2056
554.8	2039
555.0	2024
555.2	2022
555.4	2014
555.6	2006
555.8	1997
556.0	1974
556.2	1969
556.4	1964
556.6	1956
556.8	1953
557.0	1935
557.2	1917
557.4	1912
557.6	1913
557.8	1914
558.0	1914
558.2	1894
558.4	1874
558.6	1851
558.8	1842
559.0	1837
559.2	1837
559.4	1828
559.6	1820
559.8	1810
560.0	1802
560.2	1797
560.4	1787
560.6	1773
560.8	1757
561.0	1748
561.2	1740
561.4	1730
561.6	1723
561.8	1717
562.0	1704
562.2	1699
562.4	1689
562.6	1676
562.8	1673
563.0	1670
563.2	1664
563.4	1662
563.6	1645
563.8	1629
564.0	1624
564.2	1618
564.4	1611
564.6	1602
564.8	1584
565.0	1570
565.2	1569
565.4	1564
565.6	1562
565.8	1559
566.0	1549
566.2	1539
566.4	1533
566.6	1522
566.8	1520
567.0	1519
567.2	1511
567.4	1505
567.6	1502
567.8	1495
568.0	1482
568.2	1463
568.4	1452
568.6	1438
568.8	1437
569.0	1438
569.2	1425
569.4	1418
569.6	1415
569.8	1406
570.0	1401
570.2	1395
570.4	1382
570.6	1375
570.8	1372
571.0	1367
571.2	1359
571.4	1355
571.6	1348
571.8	1342
572.0	1337
572.2	1326
572.4	1315
572.6	1312
572.8	1304
573.0	1300
573.2	1291
573.4	1283
573.6	1285
573.8	1284
574.0	1278
574.2	1273
574.4	1259
574.6	1247
574.8	1244
575.0	1233
575.2	1231
575.4	1232
575.6	1227
575.8	1220
576.0	1211
576.2	1198
576.4	1196
576.6	1194
576.8	1193
577.0	1188
577.2	1178
577.4	1165
577.6	1163
577.8	1158
578.0	1151
578.2	1149
578.4	1142
578.6	1139
578.8	1136
579.0	1130
579.2	1118
579.4	1109
579.6	1105
579.8	1111
580.0	1112
580.2	1109
580.4	1100
580.6	1086
580.8	1073
581.0	1066
581.2	1064
581.4	1061
581.6	1058
581.8	1050
582.0	1040
582.2	1034
582.4	1029
582.6	1028
582.8	1023
583.0	1016
583.2	1010
583.4	1007
583.6	1006
583.8	1008
584.0	1002
584.2	995.5
584.4	989.1
584.6	972.3
584.8	963.2
585.0	954.3
585.2	953.3
585.4	953.8
585.6	955.5
585.8	948.2
586.0	943.6
586.2	935.1
586.4	930.2
586.6	927.9
586.8	924.3
587.0	919.3
587.2	909.8
587.4	900.9
587.6	894.8
587.8	895.9
588.0	893.8
588.2	891.0
588.4	885.4
588.6	884.7
588.8	885.6
589.0	881.1
589.2	874.2
589.4	867.0
589.6	864.0
589.8	863.8
590.0	860.2
590.2	851.5
590.4	845.5
590.6	834.0
590.8	829.5
591.0	821.6
591.2	818.0
591.4	813.8
591.6	813.6
591.8	810.5
592.0	808.3
592.2	797.0
592.4	787.3
592.6	779.2
592.8	780.0
593.0	777.5
593.2	778.8
593.4	773.9
593.6	766.3
593.8	763.3
594.0	760.0
594.2	754.4
594.4	751.2
594.6	747.1
594.8	748.1
595.0	747.2
595.2	743.0
595.4	740.0
595.6	733.7
595.8	726.7
596.0	727.3
596.2	721.9
596.4	716.5
596.6	708.8
596.8	699.2
597.0	690.8
597.2	690.7
597.4	694.2
597.6	693.1
597.8	690.6
598.0	686.4
598.2	683.7
598.4	683.0
598.6	684.2
598.8	680.0
599.0	673.4
599.2	665.8
599.4	655.5
599.6	649.5
599.8	648.0
600.0	648.1
600.2	650.2
600.4	647.4
600.6	635.2
600.8	629.7
601.0	626.6
601.2	622.7
601.4	622.8
601.6	618.3
601.8	612.9
602.0	608.9
602.2	609.5
602.4	608.1
602.6	606.5
602.8	603.6
603.0	596.3
603.2	586.1
603.4	580.0
603.6	574.5
603.8	571.9
604.0	570.8
604.2	570.6
604.4	569.9
604.6	566.4
604.8	564.3
605.0	557.2
605.2	552.7
605.4	552.2
605.6	550.5
605.8	547.4
606.0	548.3
606.2	546.7
606.4	545.8
606.6	543.1
606.8	537.8
607.0	531.6
607.2	529.2
607.4	528.0
607.6	520.0
607.8	515.5
608.0	510.5
608.2	508.4
608.4	508.3
608.6	507.4
608.8	500.8
609.0	496.4
609.2	493.8
609.4	492.1
609.6	492.8
609.8	486.8
610.0	482.0
610.2	478.5
610.4	478.9
610.6	481.0
610.8	478.4
611.0	467.2
611.2	459.4
611.4	457.2
611.6	457.8
611.8	456.4
612.0	452.6
612.2	448.6
612.4	447.8
612.6	446.6
612.8	446.8
613.0	442.7
613.2	438.4
613.4	435.8
613.6	433.2
613.8	426.6
614.0	425.6
614.2	424.5
614.4	422.6
614.6	421.6
614.8	420.8
615.0	418.1
615.2	417.7
615.4	414.3
615.6	408.9
615.8	405.5
616.0	403.9
616.2	400.2
616.4	398.8
616.6	394.4
616.8	390.7
617.0	390.8
617.2	390.8
617.4	388.4
617.6	385.8
617.8	382.3
618.0	377.1
618.2	373.7
618.4	371.2
618.6	369.9
618.8	367.7
619.0	366.2
619.2	365.3
619.4	366.2
619.6	367.2
619.8	366.5
620.0	362.1
620.2	355.2
620.4	350.6
620.6	349.7
620.8	350.3
621.0	352.2
621.2	350.7
621.4	348.1
621.6	345.6
621.8	344.3
622.0	341.5
622.2	337.5
622.4	332.0
622.6	328.4
622.8	327.5
623.0	324.8
623.2	324.3
623.4	320.8
623.6	317.7
623.8	315.8
624.0	318.0
624.2	315.9
624.4	315.4
624.6	314.0
624.8	309.6
625.0	306.8
625.2	304.6
625.4	302.3
625.6	300.9
625.8	300.9
626.0	298.0
626.2	296.3
626.4	295.7
626.6	290.4
626.8	288.9
627.0	286.2
627.2	282.6
627.4	281.2
627.6	282.7
627.8	282.2
628.0	282.6
628.2	279.8
628.4	276.0
628.6	269.6
628.8	268.6
629.0	269.5
629.2	266.6
629.4	267.5
629.6	269.3
629.8	266.0
630.0	268.1
630.2	266.2
630.4	260.2
630.6	256.4
630.8	254.7
631.0	250.4
631.2	249.4
631.4	246.8
631.6	248.4
631.8	248.3
632.0	248.3
632.2	245.8
632.4	244.1
632.6	241.9
632.8	243.4
633.0	242.7
633.2	241.8
633.4	241.4
633.6	242.8
633.8	243.3
634.0	237.7
634.2	234.0
634.4	232.1
634.6	228.4
634.8	226.1
635.0	225.6
635.2	222.1
635.4	223.4
635.6	225.1
635.8	222.6
636.0	219.8
636.2	218.4
636.4	216.5
636.6	216.7
636.8	215.2
637.0	213.9
637.2	211.0
637.4	209.1
637.6	208.2
637.8	207.0
638.0	205.6
638.2	205.4
638.4	205.4
638.6	203.1
638.8	201.4
639.0	200.0
639.2	198.6
639.4	196.2
639.6	195.6
639.8	193.0
640.0	191.1
640.2	191.1
640.4	191.9
640.6	189.4
640.8	189.4
641.0	187.5
641.2	187.0
641.4	186.0
641.6	185.6
641.8	184.1
642.0	184.0
642.2	181.8
642.4	179.9
642.6	177.2
642.8	176.4
643.0	178.5
643.2	178.4
643.4	178.6
643.6	175.6
643.8	172.9
644.0	170.4
644.2	168.0
644.4	166.0
644.6	166.1
644.8	164.6
645.0	162.8
645.2	163.6
645.4	165.1
645.6	165.6
645.8	166.3
646.0	162.9
646.2	158.8
646.4	156.9
646.6	157.3
646.8	155.8
647.0	155.8
647.2	153.3
647.4	153.7
647.6	152.0
647.8	151.1
648.0	149.6
648.2	148.9
648.4	146.8
648.6	146.5
648.8	144.1
649.0	141.9
649.2	142.5
649.4	144.6
649.6	145.2
649.8	143.7
650.0	139.7
650.2	135.9
650.4	137.1
650.6	138.1
650.8	137.8
651.0	136.5
651.2	134.8
651.4	134.0
651.6	134.4
651.8	133.6
652.0	132.7
652.2	132.3
652.4	132.5
652.6	133.3
652.8	130.9
653.0	127.5
653.2	125.8
653.4	124.0
653.6	121.7
653.8	123.3
654.0	123.7
654.2	122.8
654.4	123.1
654.6	121.5
654.8	120.3
655.0	120.8
655.2	118.8
655.4	119.5
655.6	118.0
655.8	117.1
656.0	116.7
656.2	115.3
656.4	112.8
656.6	113.3
656.8	112.0
657.0	113.0
657.2	113.1
657.4	111.1
657.6	109.7
657.8	108.4
658.0	108.4
658.2	109.7
658.4	109.8
658.6	107.7
658.8	105.5
659.0	104.6
659.2	104.3
659.4	104.1
659.6	102.8
659.8	101.3
660.0	99.77
660.2	98.65
660.4	98.70
660.6	98.47
660.8	98.85
661.0	99.19
661.2	99.06
661.4	97.16
661.6	95.87
661.8	94.32
662.0	93.64
662.2	95.01
662.4	95.53
662.6	95.35
662.8	95.26
663.0	93.56
663.2	91.46
663.4	91.64
663.6	90.38
663.8	90.48
664.0	90.49
664.2	88.57
664.4	86.68
664.6	86.88
664.8	85.00
665.0	84.52
665.2	85.51
665.4	86.54
665.6	85.68
665.8	86.15
666.0	84.41
666.2	82.75
666.4	82.28
666.6	81.69
666.8	79.41
667.0	79.25
667.2	79.80
667.4	79.72
667.6	79.10
667.8	77.88
668.0	77.90
668.2	77.85
668.4	77.99
668.6	77.36
668.8	76.42
669.0	75.53
669.2	76.70
669.4	76.58
669.6	76.16
669.8	75.78
670.0	73.95
670.2	73.18
670.4	71.68
670.6	70.91
670.8	71.07
671.0	71.75
671.2	72.23
671.4	71.74
671.6	70.22
671.8	69.46
672.0	68.52
672.2	68.63
672.4	70.13
672.6	69.32
672.8	68.98
673.0	68.83
673.2	66.47
673.4	65.61
673.6	65.10
673.8	64.63
674.0	65.23
674.2	66.11
674.4	66.73
674.6	65.99
674.8	65.75
675.0	64.23
675.2	63.45
675.4	63.02
675.6	62.58
675.8	61.85
676.0	62.45
676.2	60.80
676.4	60.23
676.6	59.36
676.8	58.07
677.0	57.93
677.2	58.04
677.4	57.82
677.6	58.41
677.8	57.64
678.0	58.12
678.2	57.14
678.4	55.59
678.6	54.59
678.8	54.30
679.0	53.10
679.2	54.16
679.4	54.03
679.6	53.70
679.8	53.88
680.0	55.06

