Sample:	'20211010A(EM)
File name:	B-CDS 7 700uM.FDS
Run date:	'09:42:15, 06/08/2023
Operator:	Administrator
Comment:	'

Instrument
Model:	F-4700 FL Spectrophotometer
Serial number:	2019-001
ROM Version:	5J24010 00

Instrument parameters
Measurement type:	Wavelength scan
Scan mode:	Emission
Data mode:	Fluorescence
EX WL:	350.0 nm
EM  Start WL:	370.0 nm
EM  End WL:	680.0 nm
Scan speed:	1200 nm/min
Delay:	0.0 s
EX Slit:	10.0 nm
EM Slit:	10.0 nm
PMT Voltage:	480 V
Response:	0.002 s
Corrected spectra:	Off
Shutter control:	On

Processing performed
Savitsky-Golay smoothed
Smoothing order:	3
Number of points:	7
Number of times:	1

Peak integration
Integration method:	Rectangular
Sensitivity:	1
Threshold:	1.000

Peaks
No.	Start(nm)	Apex(nm)	End(nm)	Height(Data)	Valley(nm)	Valley(Data)
1	370.0	454.6	455.4	7839	455.4	7824
2	455.4	457.4	670.2	7855	670.2	35.12
3	670.2	670.8	680.0	36.40	680.0	26.42

Data points
nm	Data
370.0	10.39
370.2	10.98
370.4	10.99
370.6	10.70
370.8	10.50
371.0	10.52
371.2	10.87
371.4	11.61
371.6	12.04
371.8	12.09
372.0	12.01
372.2	12.02
372.4	12.06
372.6	12.13
372.8	12.56
373.0	12.76
373.2	13.07
373.4	13.86
373.6	14.26
373.8	14.08
374.0	14.30
374.2	14.35
374.4	14.19
374.6	14.43
374.8	15.03
375.0	15.19
375.2	15.88
375.4	16.40
375.6	16.58
375.8	16.73
376.0	17.44
376.2	17.65
376.4	18.52
376.6	18.65
376.8	18.91
377.0	18.90
377.2	19.32
377.4	20.18
377.6	20.62
377.8	20.53
378.0	20.80
378.2	21.03
378.4	21.87
378.6	23.25
378.8	23.58
379.0	23.91
379.2	24.20
379.4	24.64
379.6	25.23
379.8	25.82
380.0	26.43
380.2	26.82
380.4	27.81
380.6	28.95
380.8	30.10
381.0	30.98
381.2	32.00
381.4	32.93
381.6	33.98
381.8	35.27
382.0	36.45
382.2	37.14
382.4	37.23
382.6	38.22
382.8	39.30
383.0	41.51
383.2	43.88
383.4	46.30
383.6	47.40
383.8	48.24
384.0	48.98
384.2	50.19
384.4	51.98
384.6	54.81
384.8	56.93
385.0	59.31
385.2	60.65
385.4	62.58
385.6	64.44
385.8	67.67
386.0	69.30
386.2	72.26
386.4	75.15
386.6	77.60
386.8	79.49
387.0	82.95
387.2	84.96
387.4	87.83
387.6	91.52
387.8	94.07
388.0	95.95
388.2	99.85
388.4	103.8
388.6	108.5
388.8	112.5
389.0	116.7
389.2	120.1
389.4	123.1
389.6	127.4
389.8	132.6
390.0	136.8
390.2	142.6
390.4	148.1
390.6	152.5
390.8	157.8
391.0	163.0
391.2	167.3
391.4	173.0
391.6	179.3
391.8	186.7
392.0	192.9
392.2	200.3
392.4	206.7
392.6	213.8
392.8	220.7
393.0	227.9
393.2	233.6
393.4	242.2
393.6	250.6
393.8	259.7
394.0	268.9
394.2	279.2
394.4	288.1
394.6	296.0
394.8	305.2
395.0	313.5
395.2	323.9
395.4	336.9
395.6	350.5
395.8	361.1
396.0	372.9
396.2	383.1
396.4	394.8
396.6	407.6
396.8	418.8
397.0	433.0
397.2	445.6
397.4	460.6
397.6	476.3
397.8	490.0
398.0	499.9
398.2	515.5
398.4	528.4
398.6	545.2
398.8	561.3
399.0	577.3
399.2	593.0
399.4	610.9
399.6	629.7
399.8	649.6
400.0	669.0
400.2	690.6
400.4	712.4
400.6	735.4
400.8	756.8
401.0	775.1
401.2	790.1
401.4	808.5
401.6	828.2
401.8	852.2
402.0	874.7
402.2	900.7
402.4	928.9
402.6	952.4
402.8	973.9
403.0	995.4
403.2	1014
403.4	1041
403.6	1069
403.8	1094
404.0	1121
404.2	1151
404.4	1176
404.6	1203
404.8	1226
405.0	1250
405.2	1279
405.4	1311
405.6	1343
405.8	1375
406.0	1405
406.2	1436
406.4	1468
406.6	1500
406.8	1532
407.0	1562
407.2	1588
407.4	1618
407.6	1650
407.8	1684
408.0	1722
408.2	1758
408.4	1790
408.6	1825
408.8	1862
409.0	1896
409.2	1925
409.4	1960
409.6	1997
409.8	2038
410.0	2075
410.2	2109
410.4	2140
410.6	2176
410.8	2218
411.0	2259
411.2	2293
411.4	2331
411.6	2375
411.8	2415
412.0	2458
412.2	2494
412.4	2530
412.6	2570
412.8	2615
413.0	2656
413.2	2693
413.4	2726
413.6	2762
413.8	2800
414.0	2841
414.2	2884
414.4	2927
414.6	2970
414.8	3022
415.0	3067
415.2	3111
415.4	3149
415.6	3186
415.8	3222
416.0	3265
416.2	3304
416.4	3342
416.6	3382
416.8	3426
417.0	3466
417.2	3506
417.4	3548
417.6	3588
417.8	3631
418.0	3673
418.2	3710
418.4	3751
418.6	3785
418.8	3823
419.0	3865
419.2	3908
419.4	3955
419.6	4007
419.8	4046
420.0	4090
420.2	4126
420.4	4161
420.6	4203
420.8	4244
421.0	4281
421.2	4327
421.4	4361
421.6	4407
421.8	4457
422.0	4498
422.2	4535
422.4	4566
422.6	4599
422.8	4638
423.0	4677
423.2	4722
423.4	4760
423.6	4802
423.8	4850
424.0	4884
424.2	4909
424.4	4944
424.6	4974
424.8	5014
425.0	5052
425.2	5094
425.4	5124
425.6	5172
425.8	5226
426.0	5266
426.2	5301
426.4	5337
426.6	5349
426.8	5387
427.0	5429
427.2	5458
427.4	5492
427.6	5536
427.8	5576
428.0	5635
428.2	5683
428.4	5698
428.6	5713
428.8	5730
429.0	5759
429.2	5807
429.4	5853
429.6	5880
429.8	5908
430.0	5941
430.2	5971
430.4	6009
430.6	6042
430.8	6072
431.0	6100
431.2	6138
431.4	6168
431.6	6190
431.8	6209
432.0	6243
432.2	6277
432.4	6311
432.6	6348
432.8	6377
433.0	6392
433.2	6420
433.4	6445
433.6	6472
433.8	6500
434.0	6520
434.2	6540
434.4	6573
434.6	6608
434.8	6647
435.0	6683
435.2	6695
435.4	6714
435.6	6725
435.8	6744
436.0	6764
436.2	6802
436.4	6834
436.6	6863
436.8	6878
437.0	6898
437.2	6908
437.4	6931
437.6	6963
437.8	6977
438.0	7001
438.2	7023
438.4	7043
438.6	7064
438.8	7087
439.0	7092
439.2	7108
439.4	7118
439.6	7136
439.8	7160
440.0	7193
440.2	7216
440.4	7223
440.6	7229
440.8	7237
441.0	7261
441.2	7287
441.4	7300
441.6	7307
441.8	7310
442.0	7311
442.2	7340
442.4	7370
442.6	7390
442.8	7413
443.0	7419
443.2	7427
443.4	7441
443.6	7457
443.8	7478
444.0	7492
444.2	7507
444.4	7526
444.6	7526
444.8	7536
445.0	7554
445.2	7553
445.4	7575
445.6	7581
445.8	7579
446.0	7589
446.2	7597
446.4	7606
446.6	7620
446.8	7611
447.0	7610
447.2	7616
447.4	7629
447.6	7650
447.8	7655
448.0	7665
448.2	7670
448.4	7684
448.6	7700
448.8	7709
449.0	7706
449.2	7705
449.4	7698
449.6	7710
449.8	7725
450.0	7735
450.2	7737
450.4	7743
450.6	7749
450.8	7765
451.0	7766
451.2	7766
451.4	7765
451.6	7765
451.8	7766
452.0	7779
452.2	7781
452.4	7783
452.6	7798
452.8	7806
453.0	7800
453.2	7802
453.4	7806
453.6	7807
453.8	7825
454.0	7839
454.2	7832
454.4	7835
454.6	7839
454.8	7837
455.0	7836
455.2	7832
455.4	7824
455.6	7829
455.8	7826
456.0	7831
456.2	7832
456.4	7826
456.6	7826
456.8	7829
457.0	7838
457.2	7853
457.4	7855
457.6	7849
457.8	7849
458.0	7835
458.2	7832
458.4	7824
458.6	7813
458.8	7816
459.0	7817
459.2	7806
459.4	7804
459.6	7806
459.8	7810
460.0	7826
460.2	7815
460.4	7809
460.6	7804
460.8	7800
461.0	7800
461.2	7795
461.4	7784
461.6	7779
461.8	7782
462.0	7773
462.2	7766
462.4	7761
462.6	7759
462.8	7750
463.0	7752
463.2	7735
463.4	7738
463.6	7735
463.8	7723
464.0	7708
464.2	7696
464.4	7690
464.6	7708
464.8	7723
465.0	7714
465.2	7704
465.4	7680
465.6	7671
465.8	7662
466.0	7663
466.2	7649
466.4	7648
466.6	7635
466.8	7636
467.0	7625
467.2	7619
467.4	7607
467.6	7587
467.8	7565
468.0	7566
468.2	7567
468.4	7569
468.6	7560
468.8	7541
469.0	7519
469.2	7513
469.4	7505
469.6	7498
469.8	7487
470.0	7463
470.2	7447
470.4	7438
470.6	7419
470.8	7415
471.0	7401
471.2	7370
471.4	7364
471.6	7359
471.8	7345
472.0	7346
472.2	7333
472.4	7322
472.6	7311
472.8	7283
473.0	7267
473.2	7267
473.4	7256
473.6	7254
473.8	7246
474.0	7227
474.2	7212
474.4	7202
474.6	7179
474.8	7161
475.0	7141
475.2	7130
475.4	7124
475.6	7126
475.8	7115
476.0	7110
476.2	7088
476.4	7069
476.6	7056
476.8	7043
477.0	7035
477.2	7031
477.4	7021
477.6	7008
477.8	6984
478.0	6964
478.2	6951
478.4	6928
478.6	6924
478.8	6914
479.0	6903
479.2	6894
479.4	6876
479.6	6851
479.8	6833
480.0	6805
480.2	6795
480.4	6786
480.6	6777
480.8	6770
481.0	6767
481.2	6752
481.4	6741
481.6	6729
481.8	6705
482.0	6694
482.2	6689
482.4	6677
482.6	6660
482.8	6648
483.0	6626
483.2	6619
483.4	6601
483.6	6594
483.8	6576
484.0	6570
484.2	6558
484.4	6544
484.6	6508
484.8	6485
485.0	6467
485.2	6460
485.4	6444
485.6	6430
485.8	6406
486.0	6385
486.2	6381
486.4	6372
486.6	6365
486.8	6346
487.0	6323
487.2	6305
487.4	6275
487.6	6256
487.8	6244
488.0	6227
488.2	6207
488.4	6201
488.6	6177
488.8	6176
489.0	6174
489.2	6173
489.4	6149
489.6	6130
489.8	6099
490.0	6068
490.2	6039
490.4	6029
490.6	6028
490.8	6025
491.0	6005
491.2	5970
491.4	5932
491.6	5919
491.8	5922
492.0	5910
492.2	5895
492.4	5870
492.6	5842
492.8	5817
493.0	5810
493.2	5795
493.4	5784
493.6	5772
493.8	5756
494.0	5731
494.2	5716
494.4	5695
494.6	5669
494.8	5639
495.0	5612
495.2	5588
495.4	5570
495.6	5564
495.8	5547
496.0	5523
496.2	5500
496.4	5485
496.6	5472
496.8	5469
497.0	5452
497.2	5440
497.4	5415
497.6	5379
497.8	5352
498.0	5338
498.2	5312
498.4	5299
498.6	5279
498.8	5245
499.0	5231
499.2	5228
499.4	5217
499.6	5202
499.8	5177
500.0	5147
500.2	5123
500.4	5112
500.6	5104
500.8	5085
501.0	5059
501.2	5031
501.4	5008
501.6	4992
501.8	4973
502.0	4947
502.2	4921
502.4	4896
502.6	4881
502.8	4874
503.0	4858
503.2	4847
503.4	4821
503.6	4799
503.8	4770
504.0	4754
504.2	4737
504.4	4719
504.6	4691
504.8	4671
505.0	4648
505.2	4632
505.4	4623
505.6	4606
505.8	4594
506.0	4572
506.2	4545
506.4	4516
506.6	4491
506.8	4470
507.0	4462
507.2	4445
507.4	4430
507.6	4416
507.8	4398
508.0	4382
508.2	4364
508.4	4335
508.6	4310
508.8	4288
509.0	4269
509.2	4255
509.4	4241
509.6	4220
509.8	4195
510.0	4177
510.2	4157
510.4	4147
510.6	4130
510.8	4112
511.0	4086
511.2	4068
511.4	4048
511.6	4034
511.8	4013
512.0	4003
512.2	3981
512.4	3966
512.6	3943
512.8	3923
513.0	3904
513.2	3898
513.4	3871
513.6	3851
513.8	3831
514.0	3815
514.2	3798
514.4	3782
514.6	3762
514.8	3740
515.0	3730
515.2	3713
515.4	3695
515.6	3681
515.8	3664
516.0	3642
516.2	3632
516.4	3617
516.6	3602
516.8	3591
517.0	3573
517.2	3551
517.4	3529
517.6	3511
517.8	3490
518.0	3475
518.2	3461
518.4	3438
518.6	3420
518.8	3406
519.0	3393
519.2	3386
519.4	3373
519.6	3350
519.8	3330
520.0	3310
520.2	3294
520.4	3282
520.6	3271
520.8	3257
521.0	3241
521.2	3225
521.4	3212
521.6	3198
521.8	3181
522.0	3160
522.2	3144
522.4	3128
522.6	3117
522.8	3104
523.0	3085
523.2	3068
523.4	3056
523.6	3040
523.8	3028
524.0	3015
524.2	2998
524.4	2982
524.6	2961
524.8	2943
525.0	2932
525.2	2918
525.4	2905
525.6	2885
525.8	2864
526.0	2853
526.2	2844
526.4	2836
526.6	2826
526.8	2807
527.0	2798
527.2	2789
527.4	2771
527.6	2764
527.8	2749
528.0	2730
528.2	2722
528.4	2709
528.6	2694
528.8	2682
529.0	2667
529.2	2656
529.4	2640
529.6	2629
529.8	2617
530.0	2604
530.2	2597
530.4	2587
530.6	2566
530.8	2548
531.0	2532
531.2	2515
531.4	2502
531.6	2485
531.8	2471
532.0	2455
532.2	2450
532.4	2438
532.6	2421
532.8	2410
533.0	2405
533.2	2393
533.4	2386
533.6	2370
533.8	2356
534.0	2347
534.2	2335
534.4	2323
534.6	2310
534.8	2297
535.0	2289
535.2	2277
535.4	2261
535.6	2248
535.8	2232
536.0	2219
536.2	2214
536.4	2200
536.6	2192
536.8	2179
537.0	2163
537.2	2152
537.4	2145
537.6	2125
537.8	2111
538.0	2097
538.2	2084
538.4	2079
538.6	2079
538.8	2070
539.0	2056
539.2	2046
539.4	2031
539.6	2020
539.8	2014
540.0	2002
540.2	1987
540.4	1972
540.6	1959
540.8	1949
541.0	1943
541.2	1932
541.4	1925
541.6	1918
541.8	1911
542.0	1899
542.2	1885
542.4	1867
542.6	1858
542.8	1849
543.0	1838
543.2	1830
543.4	1827
543.6	1818
543.8	1810
544.0	1800
544.2	1786
544.4	1779
544.6	1770
544.8	1755
545.0	1743
545.2	1733
545.4	1725
545.6	1717
545.8	1708
546.0	1697
546.2	1687
546.4	1679
546.6	1675
546.8	1669
547.0	1662
547.2	1654
547.4	1636
547.6	1621
547.8	1608
548.0	1595
548.2	1585
548.4	1580
548.6	1573
548.8	1564
549.0	1564
549.2	1557
549.4	1551
549.6	1542
549.8	1532
550.0	1512
550.2	1499
550.4	1491
550.6	1486
550.8	1479
551.0	1473
551.2	1460
551.4	1451
551.6	1444
551.8	1435
552.0	1430
552.2	1424
552.4	1420
552.6	1415
552.8	1407
553.0	1394
553.2	1387
553.4	1373
553.6	1366
553.8	1353
554.0	1346
554.2	1339
554.4	1335
554.6	1327
554.8	1325
555.0	1315
555.2	1308
555.4	1300
555.6	1289
555.8	1281
556.0	1274
556.2	1265
556.4	1258
556.6	1251
556.8	1243
557.0	1238
557.2	1233
557.4	1226
557.6	1220
557.8	1212
558.0	1206
558.2	1199
558.4	1193
558.6	1185
558.8	1175
559.0	1165
559.2	1160
559.4	1156
559.6	1151
559.8	1148
560.0	1141
560.2	1133
560.4	1121
560.6	1111
560.8	1101
561.0	1096
561.2	1092
561.4	1088
561.6	1082
561.8	1074
562.0	1068
562.2	1061
562.4	1059
562.6	1049
562.8	1042
563.0	1034
563.2	1026
563.4	1023
563.6	1018
563.8	1010
564.0	1006
564.2	1002
564.4	996.8
564.6	992.1
564.8	982.9
565.0	975.2
565.2	970.0
565.4	963.2
565.6	954.6
565.8	949.5
566.0	944.1
566.2	936.4
566.4	932.8
566.6	928.6
566.8	923.5
567.0	924.6
567.2	919.0
567.4	909.0
567.6	901.5
567.8	896.2
568.0	889.8
568.2	885.6
568.4	879.6
568.6	875.7
568.8	875.6
569.0	870.2
569.2	864.2
569.4	859.9
569.6	853.9
569.8	851.5
570.0	846.9
570.2	838.0
570.4	832.0
570.6	829.1
570.8	826.0
571.0	821.7
571.2	813.7
571.4	806.5
571.6	799.5
571.8	793.4
572.0	792.7
572.2	794.0
572.4	790.4
572.6	784.4
572.8	776.9
573.0	769.7
573.2	765.7
573.4	764.1
573.6	758.1
573.8	752.4
574.0	747.0
574.2	745.0
574.4	743.4
574.6	740.7
574.8	735.1
575.0	728.5
575.2	722.9
575.4	717.8
575.6	712.2
575.8	709.8
576.0	706.1
576.2	703.8
576.4	702.7
576.6	698.2
576.8	691.0
577.0	685.6
577.2	678.4
577.4	674.9
577.6	672.9
577.8	667.7
578.0	663.6
578.2	660.7
578.4	654.7
578.6	651.8
578.8	649.4
579.0	644.3
579.2	640.7
579.4	636.8
579.6	632.3
579.8	630.2
580.0	626.4
580.2	625.9
580.4	622.7
580.6	618.3
580.8	611.9
581.0	606.3
581.2	598.8
581.4	595.7
581.6	593.8
581.8	594.1
582.0	593.3
582.2	590.6
582.4	584.0
582.6	576.9
582.8	574.7
583.0	572.6
583.2	569.4
583.4	567.2
583.6	563.1
583.8	561.4
584.0	559.7
584.2	557.0
584.4	551.8
584.6	547.4
584.8	545.1
585.0	542.4
585.2	535.5
585.4	531.7
585.6	528.6
585.8	525.5
586.0	524.2
586.2	521.0
586.4	515.5
586.6	514.3
586.8	513.3
587.0	513.1
587.2	508.5
587.4	506.3
587.6	501.9
587.8	499.5
588.0	495.4
588.2	491.6
588.4	487.6
588.6	487.5
588.8	486.2
589.0	484.7
589.2	479.8
589.4	473.4
589.6	468.4
589.8	466.7
590.0	463.5
590.2	461.0
590.4	461.1
590.6	457.7
590.8	453.2
591.0	451.9
591.2	448.0
591.4	444.4
591.6	444.0
591.8	439.6
592.0	434.7
592.2	430.9
592.4	426.9
592.6	422.4
592.8	418.3
593.0	418.6
593.2	419.9
593.4	419.0
593.6	417.2
593.8	413.2
594.0	410.6
594.2	409.9
594.4	408.4
594.6	405.7
594.8	403.4
595.0	398.4
595.2	396.1
595.4	392.6
595.6	387.8
595.8	387.0
596.0	386.2
596.2	385.1
596.4	383.7
596.6	383.5
596.8	378.7
597.0	377.5
597.2	373.3
597.4	369.4
597.6	366.8
597.8	366.5
598.0	364.5
598.2	363.5
598.4	360.3
598.6	355.7
598.8	352.7
599.0	352.6
599.2	352.8
599.4	351.0
599.6	347.6
599.8	343.9
600.0	340.9
600.2	340.4
600.4	339.4
600.6	336.9
600.8	335.6
601.0	333.9
601.2	331.3
601.4	330.3
601.6	327.2
601.8	325.0
602.0	324.3
602.2	321.0
602.4	318.0
602.6	316.4
602.8	313.2
603.0	314.5
603.2	314.3
603.4	312.0
603.6	309.5
603.8	304.7
604.0	301.4
604.2	301.0
604.4	299.4
604.6	297.6
604.8	294.6
605.0	291.8
605.2	291.0
605.4	291.1
605.6	289.6
605.8	288.7
606.0	285.6
606.2	284.2
606.4	281.9
606.6	278.1
606.8	275.8
607.0	275.4
607.2	272.3
607.4	272.0
607.6	270.5
607.8	267.5
608.0	266.4
608.2	265.5
608.4	263.3
608.6	262.6
608.8	262.6
609.0	260.9
609.2	256.9
609.4	254.4
609.6	252.3
609.8	249.9
610.0	250.3
610.2	248.9
610.4	247.2
610.6	245.5
610.8	244.5
611.0	241.7
611.2	242.0
611.4	240.8
611.6	239.4
611.8	237.9
612.0	236.4
612.2	234.5
612.4	234.0
612.6	231.3
612.8	230.4
613.0	229.2
613.2	226.8
613.4	224.8
613.6	222.4
613.8	221.1
614.0	222.3
614.2	221.1
614.4	219.5
614.6	216.0
614.8	213.7
615.0	211.9
615.2	212.9
615.4	213.2
615.6	211.1
615.8	207.2
616.0	205.2
616.2	202.3
616.4	202.6
616.6	202.4
616.8	201.9
617.0	200.3
617.2	198.0
617.4	197.8
617.6	197.7
617.8	196.3
618.0	195.0
618.2	194.1
618.4	191.4
618.6	190.9
618.8	188.1
619.0	186.6
619.2	184.2
619.4	183.9
619.6	183.2
619.8	181.5
620.0	179.0
620.2	177.8
620.4	177.7
620.6	177.5
620.8	177.5
621.0	176.7
621.2	176.2
621.4	174.7
621.6	174.1
621.8	171.7
622.0	169.5
622.2	169.2
622.4	168.0
622.6	167.3
622.8	167.0
623.0	166.1
623.2	164.5
623.4	163.3
623.6	161.1
623.8	158.2
624.0	157.9
624.2	158.5
624.4	157.6
624.6	156.7
624.8	155.8
625.0	153.7
625.2	153.4
625.4	152.0
625.6	151.1
625.8	151.1
626.0	149.8
626.2	149.6
626.4	148.2
626.6	146.6
626.8	147.0
627.0	147.8
627.2	145.9
627.4	145.4
627.6	143.1
627.8	141.2
628.0	139.9
628.2	139.6
628.4	137.9
628.6	137.9
628.8	137.0
629.0	136.9
629.2	136.0
629.4	135.2
629.6	133.0
629.8	131.4
630.0	129.8
630.2	129.8
630.4	128.2
630.6	127.3
630.8	126.6
631.0	126.0
631.2	125.4
631.4	125.0
631.6	123.8
631.8	125.0
632.0	123.7
632.2	123.2
632.4	122.1
632.6	120.0
632.8	118.7
633.0	118.8
633.2	117.2
633.4	117.5
633.6	117.4
633.8	116.3
634.0	115.3
634.2	114.2
634.4	114.3
634.6	113.6
634.8	113.0
635.0	112.1
635.2	111.3
635.4	109.5
635.6	110.1
635.8	108.7
636.0	107.3
636.2	106.1
636.4	105.4
636.6	103.9
636.8	104.5
637.0	102.7
637.2	100.7
637.4	101.2
637.6	101.3
637.8	100.3
638.0	100.0
638.2	100.3
638.4	99.44
638.6	99.36
638.8	98.17
639.0	96.90
639.2	95.36
639.4	95.01
639.6	93.63
639.8	92.25
640.0	91.95
640.2	92.75
640.4	92.77
640.6	92.70
640.8	92.45
641.0	91.58
641.2	90.51
641.4	89.92
641.6	88.90
641.8	88.72
642.0	88.55
642.2	88.41
642.4	86.80
642.6	86.14
642.8	85.19
643.0	84.58
643.2	83.74
643.4	84.22
643.6	84.21
643.8	83.74
644.0	83.58
644.2	82.39
644.4	80.84
644.6	80.92
644.8	80.82
645.0	80.74
645.2	80.83
645.4	79.85
645.6	78.10
645.8	77.72
646.0	76.10
646.2	75.24
646.4	75.16
646.6	75.48
646.8	75.19
647.0	75.12
647.2	74.02
647.4	72.89
647.6	72.47
647.8	72.46
648.0	71.62
648.2	71.08
648.4	70.77
648.6	71.39
648.8	72.44
649.0	72.24
649.2	70.40
649.4	68.61
649.6	67.24
649.8	66.68
650.0	67.38
650.2	67.24
650.4	66.85
650.6	66.17
650.8	66.18
651.0	66.25
651.2	64.90
651.4	64.02
651.6	63.52
651.8	62.69
652.0	62.67
652.2	63.00
652.4	62.38
652.6	62.16
652.8	61.30
653.0	60.71
653.2	60.06
653.4	59.83
653.6	59.79
653.8	60.21
654.0	60.17
654.2	60.90
654.4	60.39
654.6	58.94
654.8	56.89
655.0	57.13
655.2	56.95
655.4	58.17
655.6	58.76
655.8	58.13
656.0	57.73
656.2	56.52
656.4	55.08
656.6	54.65
656.8	54.04
657.0	53.47
657.2	53.01
657.4	51.99
657.6	52.29
657.8	52.61
658.0	52.69
658.2	52.29
658.4	50.82
658.6	50.60
658.8	50.04
659.0	50.32
659.2	50.80
659.4	50.48
659.6	49.47
659.8	49.08
660.0	48.22
660.2	48.60
660.4	47.91
660.6	47.50
660.8	47.81
661.0	47.62
661.2	47.56
661.4	46.94
661.6	45.60
661.8	45.16
662.0	45.50
662.2	44.92
662.4	45.38
662.6	45.09
662.8	45.40
663.0	45.62
663.2	44.86
663.4	44.37
663.6	44.21
663.8	43.41
664.0	43.14
664.2	42.84
664.4	41.86
664.6	41.27
664.8	40.84
665.0	40.82
665.2	41.32
665.4	41.25
665.6	41.29
665.8	40.62
666.0	40.65
666.2	40.86
666.4	40.48
666.6	39.20
666.8	38.45
667.0	37.68
667.2	37.65
667.4	38.69
667.6	39.01
667.8	39.01
668.0	38.60
668.2	37.65
668.4	36.67
668.6	37.27
668.8	37.11
669.0	36.97
669.2	36.83
669.4	35.83
669.6	35.79
669.8	35.57
670.0	35.16
670.2	35.12
670.4	36.06
670.6	36.02
670.8	36.40
671.0	35.85
671.2	35.13
671.4	34.19
671.6	33.85
671.8	33.48
672.0	33.27
672.2	33.38
672.4	33.84
672.6	33.34
672.8	33.06
673.0	32.24
673.2	31.66
673.4	31.44
673.6	31.72
673.8	31.15
674.0	31.17
674.2	30.76
674.4	30.57
674.6	30.79
674.8	31.00
675.0	30.61
675.2	30.37
675.4	30.40
675.6	30.11
675.8	29.96
676.0	30.12
676.2	30.15
676.4	29.81
676.6	29.37
676.8	28.50
677.0	27.69
677.2	27.53
677.4	27.66
677.6	28.28
677.8	28.32
678.0	27.91
678.2	27.79
678.4	27.65
678.6	27.45
678.8	27.78
679.0	27.69
679.2	27.62
679.4	27.18
679.6	26.59
679.8	26.23
680.0	26.42

