Sample:	'20211010A(EM)
File name:	B-CDS 1000uM.FDS
Run date:	'10:21:42, 06/08/2023
Operator:	Administrator
Comment:	'

Instrument
Model:	F-4700 FL Spectrophotometer
Serial number:	2019-001
ROM Version:	5J24010 00

Instrument parameters
Measurement type:	Wavelength scan
Scan mode:	Emission
Data mode:	Fluorescence
EX WL:	350.0 nm
EM  Start WL:	370.0 nm
EM  End WL:	680.0 nm
Scan speed:	1200 nm/min
Delay:	0.0 s
EX Slit:	10.0 nm
EM Slit:	10.0 nm
PMT Voltage:	450 V
Response:	0.002 s
Corrected spectra:	Off
Shutter control:	On

Processing performed
Savitsky-Golay smoothed
Smoothing order:	3
Number of points:	7
Number of times:	1

Peak integration
Integration method:	Rectangular
Sensitivity:	1
Threshold:	1.000

Peaks
No.	Start(nm)	Apex(nm)	End(nm)	Height(Data)	Valley(nm)	Valley(Data)
1	370.0	466.6	680.0	8325	680.0	41.45

Data points
nm	Data
370.0	8.811
370.2	8.547
370.4	8.446
370.6	8.494
370.8	8.698
371.0	9.026
371.2	9.507
371.4	9.510
371.6	9.127
371.8	9.191
372.0	9.173
372.2	9.438
372.4	9.502
372.6	9.295
372.8	9.386
373.0	9.743
373.2	9.904
373.4	9.810
373.6	9.605
373.8	9.500
374.0	9.564
374.2	9.822
374.4	10.03
374.6	9.856
374.8	9.959
375.0	10.25
375.2	10.32
375.4	10.30
375.6	10.55
375.8	10.62
376.0	10.82
376.2	10.89
376.4	10.74
376.6	10.50
376.8	10.71
377.0	11.12
377.2	11.46
377.4	11.31
377.6	11.21
377.8	11.23
378.0	11.30
378.2	11.59
378.4	12.11
378.6	12.10
378.8	12.33
379.0	12.53
379.2	12.54
379.4	12.52
379.6	12.71
379.8	12.77
380.0	13.00
380.2	13.28
380.4	13.40
380.6	13.21
380.8	13.04
381.0	13.30
381.2	13.53
381.4	13.88
381.6	14.04
381.8	14.24
382.0	14.60
382.2	14.94
382.4	15.02
382.6	15.36
382.8	15.83
383.0	16.15
383.2	16.42
383.4	16.29
383.6	16.12
383.8	16.13
384.0	16.89
384.2	17.24
384.4	18.15
384.6	18.55
384.8	18.93
385.0	19.24
385.2	19.47
385.4	19.67
385.6	20.61
385.8	20.83
386.0	21.45
386.2	22.59
386.4	22.79
386.6	23.37
386.8	24.00
387.0	24.33
387.2	25.00
387.4	25.95
387.6	26.74
387.8	27.66
388.0	28.49
388.2	29.25
388.4	29.52
388.6	29.66
388.8	30.41
389.0	31.53
389.2	33.08
389.4	34.64
389.6	35.73
389.8	36.32
390.0	37.36
390.2	38.61
390.4	40.39
390.6	41.82
390.8	42.69
391.0	43.49
391.2	44.34
391.4	45.85
391.6	47.67
391.8	49.35
392.0	51.13
392.2	53.52
392.4	55.69
392.6	58.10
392.8	59.95
393.0	61.75
393.2	63.56
393.4	64.67
393.6	67.49
393.8	70.50
394.0	73.72
394.2	76.86
394.4	79.63
394.6	81.35
394.8	84.64
395.0	87.27
395.2	90.74
395.4	93.95
395.6	97.62
395.8	100.6
396.0	103.9
396.2	107.2
396.4	111.4
396.6	115.7
396.8	120.1
397.0	124.5
397.2	129.5
397.4	133.5
397.6	138.6
397.8	143.5
398.0	148.5
398.2	154.5
398.4	159.6
398.6	164.3
398.8	170.8
399.0	177.2
399.2	184.4
399.4	193.0
399.6	200.1
399.8	207.0
400.0	214.3
400.2	221.1
400.4	229.1
400.6	238.6
400.8	247.3
401.0	256.4
401.2	266.5
401.4	275.7
401.6	285.0
401.8	295.2
402.0	303.9
402.2	313.8
402.4	324.2
402.6	335.0
402.8	346.5
403.0	358.4
403.2	369.6
403.4	382.4
403.6	394.2
403.8	409.8
404.0	422.6
404.2	435.8
404.4	450.0
404.6	464.1
404.8	478.1
405.0	493.9
405.2	507.4
405.4	524.2
405.6	541.0
405.8	559.8
406.0	577.7
406.2	594.4
406.4	612.5
406.6	631.0
406.8	649.8
407.0	669.9
407.2	688.5
407.4	710.8
407.6	732.7
407.8	755.2
408.0	777.0
408.2	798.4
408.4	816.0
408.6	837.4
408.8	857.1
409.0	881.2
409.2	906.0
409.4	931.6
409.6	955.7
409.8	983.0
410.0	1008
410.2	1037
410.4	1066
410.6	1094
410.8	1122
411.0	1150
411.2	1176
411.4	1207
411.6	1240
411.8	1272
412.0	1304
412.2	1336
412.4	1367
412.6	1398
412.8	1431
413.0	1461
413.2	1493
413.4	1527
413.6	1557
413.8	1592
414.0	1628
414.2	1664
414.4	1700
414.6	1735
414.8	1769
415.0	1805
415.2	1843
415.4	1884
415.6	1922
415.8	1960
416.0	1995
416.2	2034
416.4	2077
416.6	2116
416.8	2154
417.0	2193
417.2	2227
417.4	2269
417.6	2308
417.8	2347
418.0	2388
418.2	2433
418.4	2480
418.6	2531
418.8	2571
419.0	2614
419.2	2649
419.4	2688
419.6	2737
419.8	2787
420.0	2830
420.2	2874
420.4	2910
420.6	2949
420.8	2994
421.0	3047
421.2	3094
421.4	3145
421.6	3194
421.8	3234
422.0	3269
422.2	3311
422.4	3355
422.6	3405
422.8	3455
423.0	3496
423.2	3535
423.4	3575
423.6	3623
423.8	3665
424.0	3707
424.2	3753
424.4	3797
424.6	3842
424.8	3887
425.0	3927
425.2	3971
425.4	4021
425.6	4067
425.8	4114
426.0	4153
426.2	4196
426.4	4242
426.6	4293
426.8	4340
427.0	4385
427.2	4425
427.4	4466
427.6	4505
427.8	4551
428.0	4588
428.2	4628
428.4	4672
428.6	4712
428.8	4752
429.0	4798
429.2	4839
429.4	4886
429.6	4929
429.8	4966
430.0	4997
430.2	5037
430.4	5077
430.6	5118
430.8	5157
431.0	5199
431.2	5238
431.4	5281
431.6	5325
431.8	5366
432.0	5400
432.2	5436
432.4	5469
432.6	5505
432.8	5542
433.0	5576
433.2	5606
433.4	5641
433.6	5679
433.8	5719
434.0	5751
434.2	5789
434.4	5818
434.6	5854
434.8	5894
435.0	5923
435.2	5958
435.4	5994
435.6	6017
435.8	6054
436.0	6089
436.2	6125
436.4	6170
436.6	6210
436.8	6244
437.0	6272
437.2	6292
437.4	6318
437.6	6346
437.8	6380
438.0	6409
438.2	6430
438.4	6458
438.6	6489
438.8	6537
439.0	6570
439.2	6591
439.4	6595
439.6	6607
439.8	6629
440.0	6673
440.2	6711
440.4	6743
440.6	6761
440.8	6778
441.0	6800
441.2	6821
441.4	6846
441.6	6873
441.8	6899
442.0	6924
442.2	6957
442.4	6981
442.6	6992
442.8	7012
443.0	7026
443.2	7042
443.4	7073
443.6	7102
443.8	7116
444.0	7130
444.2	7140
444.4	7154
444.6	7176
444.8	7204
445.0	7225
445.2	7247
445.4	7267
445.6	7290
445.8	7314
446.0	7331
446.2	7341
446.4	7362
446.6	7372
446.8	7386
447.0	7409
447.2	7424
447.4	7441
447.6	7467
447.8	7482
448.0	7486
448.2	7506
448.4	7522
448.6	7540
448.8	7559
449.0	7568
449.2	7579
449.4	7610
449.6	7618
449.8	7634
450.0	7644
450.2	7650
450.4	7674
450.6	7698
450.8	7693
451.0	7709
451.2	7718
451.4	7722
451.6	7738
451.8	7754
452.0	7775
452.2	7806
452.4	7818
452.6	7827
452.8	7839
453.0	7849
453.2	7866
453.4	7878
453.6	7875
453.8	7883
454.0	7897
454.2	7912
454.4	7930
454.6	7947
454.8	7964
455.0	7975
455.2	7975
455.4	7983
455.6	7994
455.8	8003
456.0	8023
456.2	8032
456.4	8025
456.6	8036
456.8	8047
457.0	8054
457.2	8068
457.4	8085
457.6	8098
457.8	8127
458.0	8146
458.2	8154
458.4	8146
458.6	8139
458.8	8136
459.0	8146
459.2	8156
459.4	8168
459.6	8168
459.8	8176
460.0	8190
460.2	8199
460.4	8212
460.6	8224
460.8	8226
461.0	8229
461.2	8231
461.4	8232
461.6	8242
461.8	8248
462.0	8253
462.2	8262
462.4	8261
462.6	8263
462.8	8271
463.0	8270
463.2	8279
463.4	8287
463.6	8290
463.8	8287
464.0	8292
464.2	8290
464.4	8296
464.6	8296
464.8	8297
465.0	8289
465.2	8289
465.4	8296
465.6	8290
465.8	8299
466.0	8307
466.2	8314
466.4	8323
466.6	8325
466.8	8308
467.0	8306
467.2	8300
467.4	8305
467.6	8311
467.8	8310
468.0	8310
468.2	8305
468.4	8300
468.6	8304
468.8	8303
469.0	8298
469.2	8290
469.4	8279
469.6	8268
469.8	8270
470.0	8265
470.2	8263
470.4	8263
470.6	8254
470.8	8242
471.0	8237
471.2	8214
471.4	8208
471.6	8206
471.8	8209
472.0	8212
472.2	8211
472.4	8193
472.6	8180
472.8	8167
473.0	8164
473.2	8168
473.4	8167
473.6	8146
473.8	8132
474.0	8121
474.2	8123
474.4	8136
474.6	8131
474.8	8110
475.0	8100
475.2	8071
475.4	8052
475.6	8050
475.8	8051
476.0	8038
476.2	8036
476.4	8025
476.6	8026
476.8	8039
477.0	8044
477.2	8020
477.4	8005
477.6	7988
477.8	7982
478.0	7971
478.2	7947
478.4	7925
478.6	7909
478.8	7887
479.0	7880
479.2	7875
479.4	7870
479.6	7870
479.8	7878
480.0	7865
480.2	7848
480.4	7831
480.6	7814
480.8	7795
481.0	7788
481.2	7785
481.4	7780
481.6	7775
481.8	7768
482.0	7749
482.2	7729
482.4	7724
482.6	7718
482.8	7710
483.0	7693
483.2	7682
483.4	7660
483.6	7634
483.8	7624
484.0	7609
484.2	7586
484.4	7579
484.6	7565
484.8	7551
485.0	7549
485.2	7542
485.4	7526
485.6	7511
485.8	7493
486.0	7473
486.2	7464
486.4	7453
486.6	7444
486.8	7435
487.0	7413
487.2	7392
487.4	7383
487.6	7378
487.8	7359
488.0	7337
488.2	7305
488.4	7289
488.6	7278
488.8	7273
489.0	7250
489.2	7237
489.4	7222
489.6	7214
489.8	7204
490.0	7175
490.2	7153
490.4	7135
490.6	7110
490.8	7102
491.0	7104
491.2	7082
491.4	7062
491.6	7052
491.8	7017
492.0	6996
492.2	6983
492.4	6956
492.6	6937
492.8	6933
493.0	6916
493.2	6896
493.4	6882
493.6	6855
493.8	6837
494.0	6811
494.2	6794
494.4	6778
494.6	6765
494.8	6745
495.0	6723
495.2	6689
495.4	6666
495.6	6642
495.8	6621
496.0	6589
496.2	6575
496.4	6564
496.6	6558
496.8	6537
497.0	6518
497.2	6497
497.4	6480
497.6	6470
497.8	6446
498.0	6411
498.2	6387
498.4	6368
498.6	6345
498.8	6340
499.0	6318
499.2	6297
499.4	6271
499.6	6243
499.8	6213
500.0	6187
500.2	6159
500.4	6135
500.6	6108
500.8	6084
501.0	6070
501.2	6053
501.4	6038
501.6	6025
501.8	6007
502.0	5980
502.2	5957
502.4	5931
502.6	5914
502.8	5893
503.0	5865
503.2	5845
503.4	5819
503.6	5798
503.8	5781
504.0	5749
504.2	5716
504.4	5701
504.6	5678
504.8	5665
505.0	5643
505.2	5611
505.4	5587
505.6	5568
505.8	5546
506.0	5528
506.2	5506
506.4	5479
506.6	5460
506.8	5440
507.0	5424
507.2	5404
507.4	5375
507.6	5342
507.8	5320
508.0	5297
508.2	5283
508.4	5263
508.6	5235
508.8	5210
509.0	5187
509.2	5163
509.4	5147
509.6	5126
509.8	5108
510.0	5092
510.2	5070
510.4	5056
510.6	5042
510.8	5017
511.0	4991
511.2	4959
511.4	4925
511.6	4908
511.8	4899
512.0	4883
512.2	4871
512.4	4849
512.6	4818
512.8	4786
513.0	4761
513.2	4742
513.4	4723
513.6	4710
513.8	4693
514.0	4676
514.2	4650
514.4	4630
514.6	4609
514.8	4589
515.0	4568
515.2	4551
515.4	4522
515.6	4500
515.8	4488
516.0	4469
516.2	4440
516.4	4419
516.6	4392
516.8	4376
517.0	4368
517.2	4352
517.4	4331
517.6	4307
517.8	4288
518.0	4268
518.2	4247
518.4	4229
518.6	4214
518.8	4189
519.0	4172
519.2	4149
519.4	4128
519.6	4116
519.8	4097
520.0	4076
520.2	4052
520.4	4035
520.6	4024
520.8	4012
521.0	3995
521.2	3979
521.4	3951
521.6	3929
521.8	3914
522.0	3899
522.2	3891
522.4	3873
522.6	3855
522.8	3834
523.0	3812
523.2	3785
523.4	3774
523.6	3757
523.8	3746
524.0	3728
524.2	3704
524.4	3684
524.6	3674
524.8	3665
525.0	3650
525.2	3631
525.4	3612
525.6	3601
525.8	3585
526.0	3564
526.2	3542
526.4	3523
526.6	3514
526.8	3503
527.0	3489
527.2	3466
527.4	3445
527.6	3427
527.8	3413
528.0	3396
528.2	3376
528.4	3360
528.6	3349
528.8	3333
529.0	3321
529.2	3299
529.4	3276
529.6	3263
529.8	3250
530.0	3235
530.2	3226
530.4	3212
530.6	3192
530.8	3180
531.0	3161
531.2	3146
531.4	3135
531.6	3119
531.8	3096
532.0	3086
532.2	3072
532.4	3060
532.6	3046
532.8	3027
533.0	3008
533.2	2998
533.4	2985
533.6	2971
533.8	2964
534.0	2945
534.2	2933
534.4	2921
534.6	2907
534.8	2892
535.0	2882
535.2	2865
535.4	2855
535.6	2839
535.8	2829
536.0	2817
536.2	2799
536.4	2791
536.6	2779
536.8	2762
537.0	2744
537.2	2724
537.4	2707
537.6	2702
537.8	2688
538.0	2679
538.2	2660
538.4	2645
538.6	2635
538.8	2628
539.0	2616
539.2	2600
539.4	2582
539.6	2567
539.8	2551
540.0	2542
540.2	2533
540.4	2512
540.6	2498
540.8	2486
541.0	2473
541.2	2465
541.4	2456
541.6	2438
541.8	2423
542.0	2407
542.2	2392
542.4	2381
542.6	2371
542.8	2361
543.0	2353
543.2	2343
543.4	2334
543.6	2321
543.8	2307
544.0	2292
544.2	2279
544.4	2266
544.6	2257
544.8	2248
545.0	2237
545.2	2224
545.4	2208
545.6	2192
545.8	2176
546.0	2165
546.2	2154
546.4	2147
546.6	2137
546.8	2128
547.0	2116
547.2	2112
547.4	2100
547.6	2088
547.8	2076
548.0	2064
548.2	2047
548.4	2040
548.6	2028
548.8	2016
549.0	2008
549.2	1996
549.4	1982
549.6	1972
549.8	1959
550.0	1948
550.2	1940
550.4	1924
550.6	1914
550.8	1907
551.0	1895
551.2	1890
551.4	1879
551.6	1868
551.8	1855
552.0	1846
552.2	1833
552.4	1822
552.6	1808
552.8	1800
553.0	1792
553.2	1786
553.4	1777
553.6	1768
553.8	1757
554.0	1751
554.2	1743
554.4	1731
554.6	1725
554.8	1715
555.0	1700
555.2	1692
555.4	1678
555.6	1669
555.8	1669
556.0	1659
556.2	1648
556.4	1637
556.6	1626
556.8	1621
557.0	1613
557.2	1603
557.4	1592
557.6	1578
557.8	1571
558.0	1559
558.2	1553
558.4	1545
558.6	1537
558.8	1530
559.0	1524
559.2	1515
559.4	1510
559.6	1498
559.8	1487
560.0	1479
560.2	1473
560.4	1466
560.6	1456
560.8	1444
561.0	1435
561.2	1427
561.4	1421
561.6	1415
561.8	1407
562.0	1396
562.2	1392
562.4	1384
562.6	1381
562.8	1374
563.0	1362
563.2	1352
563.4	1345
563.6	1338
563.8	1332
564.0	1323
564.2	1314
564.4	1307
564.6	1301
564.8	1297
565.0	1292
565.2	1282
565.4	1276
565.6	1266
565.8	1258
566.0	1254
566.2	1248
566.4	1239
566.6	1232
566.8	1227
567.0	1220
567.2	1214
567.4	1207
567.6	1197
567.8	1192
568.0	1190
568.2	1182
568.4	1174
568.6	1165
568.8	1155
569.0	1151
569.2	1150
569.4	1145
569.6	1141
569.8	1135
570.0	1127
570.2	1121
570.4	1115
570.6	1106
570.8	1098
571.0	1092
571.2	1087
571.4	1083
571.6	1075
571.8	1065
572.0	1056
572.2	1050
572.4	1049
572.6	1046
572.8	1041
573.0	1032
573.2	1026
573.4	1019
573.6	1016
573.8	1009
574.0	1002
574.2	995.1
574.4	992.7
574.6	988.8
574.8	986.0
575.0	980.1
575.2	973.9
575.4	965.8
575.6	960.1
575.8	953.2
576.0	947.0
576.2	944.5
576.4	943.7
576.6	939.4
576.8	936.9
577.0	930.5
577.2	921.5
577.4	914.4
577.6	908.9
577.8	903.9
578.0	901.4
578.2	894.8
578.4	886.8
578.6	880.3
578.8	879.5
579.0	878.0
579.2	874.9
579.4	868.8
579.6	860.9
579.8	851.9
580.0	847.4
580.2	842.8
580.4	837.8
580.6	835.0
580.8	832.2
581.0	826.8
581.2	822.3
581.4	820.2
581.6	815.8
581.8	812.0
582.0	807.3
582.2	798.8
582.4	792.8
582.6	789.7
582.8	786.4
583.0	786.0
583.2	784.1
583.4	776.9
583.6	771.6
583.8	765.9
584.0	761.0
584.2	756.0
584.4	753.0
584.6	748.8
584.8	745.4
585.0	742.8
585.2	740.2
585.4	732.1
585.6	728.1
585.8	721.9
586.0	717.2
586.2	714.6
586.4	712.1
586.6	707.1
586.8	703.0
587.0	695.4
587.2	691.7
587.4	687.7
587.6	685.4
587.8	685.1
588.0	682.1
588.2	676.6
588.4	672.8
588.6	665.7
588.8	660.1
589.0	656.3
589.2	653.3
589.4	651.5
589.6	649.1
589.8	645.5
590.0	642.3
590.2	638.0
590.4	635.4
590.6	632.0
590.8	626.7
591.0	620.0
591.2	616.7
591.4	613.7
591.6	612.5
591.8	611.1
592.0	608.9
592.2	604.9
592.4	600.0
592.6	595.1
592.8	590.4
593.0	587.5
593.2	586.5
593.4	584.5
593.6	580.8
593.8	576.3
594.0	571.8
594.2	570.1
594.4	568.6
594.6	565.5
594.8	561.4
595.0	555.5
595.2	550.2
595.4	546.7
595.6	544.5
595.8	543.1
596.0	540.0
596.2	537.8
596.4	534.0
596.6	531.0
596.8	528.7
597.0	526.4
597.2	523.0
597.4	521.5
597.6	517.5
597.8	515.1
598.0	510.9
598.2	506.4
598.4	504.4
598.6	501.9
598.8	498.9
599.0	496.9
599.2	493.3
599.4	489.5
599.6	488.0
599.8	483.8
600.0	482.0
600.2	479.4
600.4	476.6
600.6	474.5
600.8	474.3
601.0	470.7
601.2	468.1
601.4	462.8
601.6	459.5
601.8	456.6
602.0	454.5
602.2	451.0
602.4	447.4
602.6	442.7
602.8	441.1
603.0	440.7
603.2	439.6
603.4	438.2
603.6	434.6
603.8	430.6
604.0	428.0
604.2	426.1
604.4	425.1
604.6	422.6
604.8	420.5
605.0	417.2
605.2	414.7
605.4	412.7
605.6	410.1
605.8	406.7
606.0	405.4
606.2	401.2
606.4	398.8
606.6	399.0
606.8	396.7
607.0	393.1
607.2	390.6
607.4	386.1
607.6	384.5
607.8	385.4
608.0	384.7
608.2	381.6
608.4	378.5
608.6	375.0
608.8	371.1
609.0	369.2
609.2	367.1
609.4	364.8
609.6	363.1
609.8	363.2
610.0	362.5
610.2	362.5
610.4	359.6
610.6	355.7
610.8	352.3
611.0	350.3
611.2	348.6
611.4	347.3
611.6	343.9
611.8	339.7
612.0	336.0
612.2	335.2
612.4	335.1
612.6	334.0
612.8	332.3
613.0	329.8
613.2	325.4
613.4	324.1
613.6	324.4
613.8	321.9
614.0	319.9
614.2	318.3
614.4	315.9
614.6	313.9
614.8	312.7
615.0	311.1
615.2	308.7
615.4	307.2
615.6	304.9
615.8	301.6
616.0	299.5
616.2	298.3
616.4	297.1
616.6	296.1
616.8	294.6
617.0	293.6
617.2	293.3
617.4	291.5
617.6	289.0
617.8	285.4
618.0	282.1
618.2	279.4
618.4	278.9
618.6	278.1
618.8	275.6
619.0	273.7
619.2	272.2
619.4	269.5
619.6	267.9
619.8	265.6
620.0	263.6
620.2	263.0
620.4	263.2
620.6	261.3
620.8	260.0
621.0	257.5
621.2	255.1
621.4	253.7
621.6	253.2
621.8	250.9
622.0	250.7
622.2	248.5
622.4	247.2
622.6	246.0
622.8	245.6
623.0	244.1
623.2	242.9
623.4	241.5
623.6	240.8
623.8	238.3
624.0	234.7
624.2	231.7
624.4	230.1
624.6	229.7
624.8	227.9
625.0	227.3
625.2	225.2
625.4	224.3
625.6	224.3
625.8	222.5
626.0	220.3
626.2	219.0
626.4	217.6
626.6	216.6
626.8	215.5
627.0	213.8
627.2	213.4
627.4	211.9
627.6	211.3
627.8	209.3
628.0	207.2
628.2	206.9
628.4	205.9
628.6	204.4
628.8	203.4
629.0	201.4
629.2	199.9
629.4	199.2
629.6	196.9
629.8	195.3
630.0	194.1
630.2	192.7
630.4	192.0
630.6	189.7
630.8	189.3
631.0	188.5
631.2	187.4
631.4	186.2
631.6	185.0
631.8	182.8
632.0	182.8
632.2	180.6
632.4	179.5
632.6	179.2
632.8	178.3
633.0	178.3
633.2	176.4
633.4	174.5
633.6	173.3
633.8	171.9
634.0	171.4
634.2	172.9
634.4	171.6
634.6	170.3
634.8	168.2
635.0	166.3
635.2	166.0
635.4	165.1
635.6	163.5
635.8	160.8
636.0	159.5
636.2	159.5
636.4	159.7
636.6	159.2
636.8	158.8
637.0	157.1
637.2	155.6
637.4	154.3
637.6	153.4
637.8	153.3
638.0	153.6
638.2	152.6
638.4	150.4
638.6	148.9
638.8	148.0
639.0	147.0
639.2	146.3
639.4	145.4
639.6	144.1
639.8	142.3
640.0	142.0
640.2	141.3
640.4	140.9
640.6	139.8
640.8	139.2
641.0	136.7
641.2	135.9
641.4	135.0
641.6	135.0
641.8	134.7
642.0	134.9
642.2	134.1
642.4	132.4
642.6	130.0
642.8	129.6
643.0	129.5
643.2	129.1
643.4	129.4
643.6	128.8
643.8	127.6
644.0	126.7
644.2	125.5
644.4	124.1
644.6	124.1
644.8	123.0
645.0	122.6
645.2	121.3
645.4	120.5
645.6	119.9
645.8	119.6
646.0	117.9
646.2	117.9
646.4	117.7
646.6	116.6
646.8	115.5
647.0	113.8
647.2	111.0
647.4	110.2
647.6	110.0
647.8	109.3
648.0	109.4
648.2	110.3
648.4	109.7
648.6	109.6
648.8	107.7
649.0	106.4
649.2	105.1
649.4	104.7
649.6	103.4
649.8	103.0
650.0	101.0
650.2	100.9
650.4	100.7
650.6	100.0
650.8	99.01
651.0	99.09
651.2	98.75
651.4	98.96
651.6	99.19
651.8	98.68
652.0	97.24
652.2	96.20
652.4	95.47
652.6	94.23
652.8	94.28
653.0	94.47
653.2	93.35
653.4	92.99
653.6	91.99
653.8	90.76
654.0	90.52
654.2	90.66
654.4	89.09
654.6	89.25
654.8	88.45
655.0	87.54
655.2	86.97
655.4	87.12
655.6	85.52
655.8	85.06
656.0	83.87
656.2	83.49
656.4	83.27
656.6	83.81
656.8	83.66
657.0	83.07
657.2	82.30
657.4	81.68
657.6	81.24
657.8	80.70
658.0	79.41
658.2	78.33
658.4	77.67
658.6	77.34
658.8	77.37
659.0	77.40
659.2	77.11
659.4	76.62
659.6	75.86
659.8	75.20
660.0	73.73
660.2	72.89
660.4	72.83
660.6	72.87
660.8	73.16
661.0	72.68
661.2	72.17
661.4	71.27
661.6	70.83
661.8	70.84
662.0	70.54
662.2	69.97
662.4	69.64
662.6	68.54
662.8	68.24
663.0	68.22
663.2	67.87
663.4	67.61
663.6	67.33
663.8	66.13
664.0	66.19
664.2	66.24
664.4	66.19
664.6	65.69
664.8	64.60
665.0	64.19
665.2	63.98
665.4	64.10
665.6	64.21
665.8	63.24
666.0	62.23
666.2	62.23
666.4	61.86
666.6	61.47
666.8	60.81
667.0	60.04
667.2	60.00
667.4	59.68
667.6	59.46
667.8	58.69
668.0	57.99
668.2	57.70
668.4	56.98
668.6	56.65
668.8	56.16
669.0	56.03
669.2	56.01
669.4	56.21
669.6	55.76
669.8	55.33
670.0	54.81
670.2	53.66
670.4	53.05
670.6	53.45
670.8	53.36
671.0	52.77
671.2	52.07
671.4	51.84
671.6	52.36
671.8	52.73
672.0	52.21
672.2	50.86
672.4	49.46
672.6	49.18
672.8	49.24
673.0	49.57
673.2	49.66
673.4	49.75
673.6	49.41
673.8	48.90
674.0	47.70
674.2	47.47
674.4	47.33
674.6	47.68
674.8	47.51
675.0	47.37
675.2	46.07
675.4	45.74
675.6	45.88
675.8	45.85
676.0	45.80
676.2	45.36
676.4	45.01
676.6	44.85
676.8	44.75
677.0	44.06
677.2	43.72
677.4	42.74
677.6	42.78
677.8	42.47
678.0	42.34
678.2	42.41
678.4	42.34
678.6	42.07
678.8	41.70
679.0	41.14
679.2	41.08
679.4	41.32
679.6	41.50
679.8	41.57
680.0	41.45

