Sample:	'20211010A(EM)
File name:	B-CDS 5 500uM.FDS
Run date:	'09:30:22, 06/08/2023
Operator:	Administrator
Comment:	'

Instrument
Model:	F-4700 FL Spectrophotometer
Serial number:	2019-001
ROM Version:	5J24010 00

Instrument parameters
Measurement type:	Wavelength scan
Scan mode:	Emission
Data mode:	Fluorescence
EX WL:	350.0 nm
EM  Start WL:	370.0 nm
EM  End WL:	680.0 nm
Scan speed:	1200 nm/min
Delay:	0.0 s
EX Slit:	10.0 nm
EM Slit:	10.0 nm
PMT Voltage:	520 V
Response:	0.002 s
Corrected spectra:	Off
Shutter control:	On

Processing performed
Savitsky-Golay smoothed
Smoothing order:	3
Number of points:	7
Number of times:	1

Peak integration
Integration method:	Rectangular
Sensitivity:	1
Threshold:	1.000

Peaks
No.	Start(nm)	Apex(nm)	End(nm)	Height(Data)	Valley(nm)	Valley(Data)
1	370.0	475.2	476.8	5774	476.8	5739
2	476.8	478.2	479.6	5777	479.6	5738
3	479.6	481.0	667.0	5759	667.0	48.50
4	667.0	668.2	674.8	50.89	674.8	37.91
5	674.8	675.8	680.0	40.11	680.0	34.26

Data points
nm	Data
370.0	8.279
370.2	7.671
370.4	7.411
370.6	7.411
370.8	7.582
371.0	7.765
371.2	7.725
371.4	7.435
371.6	7.552
371.8	8.042
372.0	8.522
372.2	8.778
372.4	8.736
372.6	8.078
372.8	7.969
373.0	8.259
373.2	8.196
373.4	8.690
373.6	8.948
373.8	8.928
374.0	8.862
374.2	8.855
374.4	8.392
374.6	8.515
374.8	8.426
375.0	8.806
375.2	8.663
375.4	8.620
375.6	8.723
375.8	8.829
376.0	8.895
376.2	9.158
376.4	9.191
376.6	8.839
376.8	8.812
377.0	8.731
377.2	8.814
377.4	9.378
377.6	9.740
377.8	10.20
378.0	10.37
378.2	10.19
378.4	10.02
378.6	9.785
378.8	9.856
379.0	10.63
379.2	10.96
379.4	10.87
379.6	11.16
379.8	10.82
380.0	10.99
380.2	11.57
380.4	11.57
380.6	11.12
380.8	11.33
381.0	11.29
381.2	11.66
381.4	12.61
381.6	12.59
381.8	12.72
382.0	13.43
382.2	13.41
382.4	13.82
382.6	13.93
382.8	13.58
383.0	13.50
383.2	13.68
383.4	13.98
383.6	15.01
383.8	15.78
384.0	16.18
384.2	16.53
384.4	16.55
384.6	16.72
384.8	16.43
385.0	17.08
385.2	17.71
385.4	19.00
385.6	19.40
385.8	18.94
386.0	18.17
386.2	19.06
386.4	19.70
386.6	20.98
386.8	21.33
387.0	21.73
387.2	22.56
387.4	24.16
387.6	24.97
387.8	25.75
388.0	25.40
388.2	25.71
388.4	26.41
388.6	27.23
388.8	28.39
389.0	29.27
389.2	29.68
389.4	30.94
389.6	31.67
389.8	32.10
390.0	33.12
390.2	33.53
390.4	35.01
390.6	36.71
390.8	38.21
391.0	39.35
391.2	41.28
391.4	42.62
391.6	44.16
391.8	45.36
392.0	46.43
392.2	47.24
392.4	49.23
392.6	50.72
392.8	52.93
393.0	55.74
393.2	57.89
393.4	59.35
393.6	60.28
393.8	60.11
394.0	62.45
394.2	64.23
394.4	66.91
394.6	69.81
394.8	72.29
395.0	73.92
395.2	77.64
395.4	79.03
395.6	81.70
395.8	84.34
396.0	85.95
396.2	88.46
396.4	92.58
396.6	96.82
396.8	100.5
397.0	104.4
397.2	108.1
397.4	111.8
397.6	113.4
397.8	116.6
398.0	118.2
398.2	121.9
398.4	129.5
398.6	137.9
398.8	143.0
399.0	148.9
399.2	152.3
399.4	154.2
399.6	158.7
399.8	165.1
400.0	169.9
400.2	174.6
400.4	178.8
400.6	185.2
400.8	192.3
401.0	200.9
401.2	208.7
401.4	214.5
401.6	218.9
401.8	223.4
402.0	230.2
402.2	237.8
402.4	244.0
402.6	251.9
402.8	261.3
403.0	269.0
403.2	278.4
403.4	285.8
403.6	289.1
403.8	296.1
404.0	307.4
404.2	317.3
404.4	327.3
404.6	335.4
404.8	342.6
405.0	351.8
405.2	363.5
405.4	373.5
405.6	384.1
405.8	393.0
406.0	404.3
406.2	414.1
406.4	425.0
406.6	435.1
406.8	449.9
407.0	462.5
407.2	476.2
407.4	488.2
407.6	498.0
407.8	506.9
408.0	518.4
408.2	532.7
408.4	547.7
408.6	566.0
408.8	583.3
409.0	596.3
409.2	606.0
409.4	620.2
409.6	629.0
409.8	643.8
410.0	663.5
410.2	678.4
410.4	692.5
410.6	710.1
410.8	722.7
411.0	740.9
411.2	757.9
411.4	773.9
411.6	787.5
411.8	802.9
412.0	820.8
412.2	841.5
412.4	857.5
412.6	877.0
412.8	894.3
413.0	909.5
413.2	931.7
413.4	954.9
413.6	972.9
413.8	993.6
414.0	1011
414.2	1030
414.4	1047
414.6	1066
414.8	1082
415.0	1103
415.2	1123
415.4	1142
415.6	1161
415.8	1179
416.0	1204
416.2	1231
416.4	1254
416.6	1276
416.8	1297
417.0	1313
417.2	1341
417.4	1364
417.6	1386
417.8	1406
418.0	1424
418.2	1447
418.4	1474
418.6	1496
418.8	1522
419.0	1543
419.2	1563
419.4	1590
419.6	1611
419.8	1636
420.0	1658
420.2	1684
420.4	1701
420.6	1730
420.8	1751
421.0	1776
421.2	1795
421.4	1815
421.6	1832
421.8	1867
422.0	1890
422.2	1920
422.4	1938
422.6	1962
422.8	1988
423.0	2023
423.2	2044
423.4	2067
423.6	2084
423.8	2109
424.0	2132
424.2	2152
424.4	2177
424.6	2207
424.8	2243
425.0	2272
425.2	2292
425.4	2307
425.6	2333
425.8	2362
426.0	2387
426.2	2410
426.4	2430
426.6	2451
426.8	2477
427.0	2502
427.2	2524
427.4	2555
427.6	2585
427.8	2613
428.0	2636
428.2	2664
428.4	2676
428.6	2696
428.8	2721
429.0	2753
429.2	2773
429.4	2811
429.6	2826
429.8	2839
430.0	2859
430.2	2886
430.4	2905
430.6	2940
430.8	2971
431.0	2995
431.2	3018
431.4	3040
431.6	3056
431.8	3077
432.0	3101
432.2	3131
432.4	3160
432.6	3182
432.8	3200
433.0	3211
433.2	3228
433.4	3251
433.6	3271
433.8	3297
434.0	3321
434.2	3340
434.4	3369
434.6	3391
434.8	3412
435.0	3437
435.2	3453
435.4	3469
435.6	3485
435.8	3508
436.0	3528
436.2	3557
436.4	3575
436.6	3600
436.8	3623
437.0	3645
437.2	3656
437.4	3670
437.6	3678
437.8	3704
438.0	3733
438.2	3760
438.4	3776
438.6	3784
438.8	3798
439.0	3829
439.2	3853
439.4	3875
439.6	3891
439.8	3899
440.0	3924
440.2	3945
440.4	3960
440.6	3980
440.8	4000
441.0	4021
441.2	4045
441.4	4064
441.6	4082
441.8	4097
442.0	4097
442.2	4105
442.4	4111
442.6	4132
442.8	4153
443.0	4170
443.2	4177
443.4	4199
443.6	4209
443.8	4228
444.0	4253
444.2	4279
444.4	4302
444.6	4314
444.8	4326
445.0	4338
445.2	4357
445.4	4368
445.6	4377
445.8	4377
446.0	4400
446.2	4420
446.4	4447
446.6	4459
446.8	4474
447.0	4478
447.2	4498
447.4	4515
447.6	4528
447.8	4547
448.0	4561
448.2	4578
448.4	4592
448.6	4609
448.8	4617
449.0	4620
449.2	4638
449.4	4665
449.6	4668
449.8	4685
450.0	4691
450.2	4686
450.4	4712
450.6	4746
450.8	4758
451.0	4768
451.2	4772
451.4	4783
451.6	4801
451.8	4820
452.0	4822
452.2	4842
452.4	4849
452.6	4875
452.8	4890
453.0	4900
453.2	4908
453.4	4937
453.6	4947
453.8	4959
454.0	4965
454.2	4983
454.4	4988
454.6	5009
454.8	5026
455.0	5032
455.2	5035
455.4	5053
455.6	5060
455.8	5070
456.0	5081
456.2	5086
456.4	5095
456.6	5112
456.8	5131
457.0	5146
457.2	5165
457.4	5168
457.6	5190
457.8	5195
458.0	5203
458.2	5209
458.4	5226
458.6	5234
458.8	5261
459.0	5268
459.2	5260
459.4	5254
459.6	5256
459.8	5272
460.0	5303
460.2	5323
460.4	5332
460.6	5340
460.8	5349
461.0	5364
461.2	5382
461.4	5386
461.6	5390
461.8	5394
462.0	5406
462.2	5413
462.4	5425
462.6	5429
462.8	5438
463.0	5447
463.2	5465
463.4	5482
463.6	5504
463.8	5508
464.0	5514
464.2	5508
464.4	5517
464.6	5527
464.8	5534
465.0	5534
465.2	5543
465.4	5549
465.6	5568
465.8	5580
466.0	5582
466.2	5588
466.4	5590
466.6	5595
466.8	5599
467.0	5611
467.2	5613
467.4	5629
467.6	5626
467.8	5631
468.0	5637
468.2	5655
468.4	5657
468.6	5672
468.8	5668
469.0	5680
469.2	5689
469.4	5687
469.6	5678
469.8	5680
470.0	5676
470.2	5691
470.4	5703
470.6	5704
470.8	5711
471.0	5716
471.2	5721
471.4	5720
471.6	5714
471.8	5718
472.0	5727
472.2	5739
472.4	5759
472.6	5758
472.8	5751
473.0	5749
473.2	5756
473.4	5766
473.6	5763
473.8	5763
474.0	5766
474.2	5755
474.4	5759
474.6	5762
474.8	5758
475.0	5767
475.2	5774
475.4	5770
475.6	5770
475.8	5766
476.0	5764
476.2	5756
476.4	5757
476.6	5750
476.8	5739
477.0	5751
477.2	5754
477.4	5757
477.6	5771
477.8	5767
478.0	5764
478.2	5777
478.4	5775
478.6	5771
478.8	5765
479.0	5754
479.2	5746
479.4	5739
479.6	5738
479.8	5747
480.0	5749
480.2	5750
480.4	5750
480.6	5753
480.8	5750
481.0	5759
481.2	5759
481.4	5752
481.6	5749
481.8	5743
482.0	5739
482.2	5744
482.4	5754
482.6	5764
482.8	5762
483.0	5742
483.2	5737
483.4	5724
483.6	5717
483.8	5713
484.0	5704
484.2	5690
484.4	5703
484.6	5699
484.8	5701
485.0	5692
485.2	5689
485.4	5679
485.6	5684
485.8	5674
486.0	5681
486.2	5672
486.4	5673
486.6	5678
486.8	5676
487.0	5665
487.2	5652
487.4	5636
487.6	5622
487.8	5622
488.0	5620
488.2	5620
488.4	5606
488.6	5599
488.8	5582
489.0	5569
489.2	5572
489.4	5569
489.6	5560
489.8	5553
490.0	5540
490.2	5526
490.4	5521
490.6	5510
490.8	5505
491.0	5502
491.2	5505
491.4	5502
491.6	5501
491.8	5483
492.0	5477
492.2	5466
492.4	5466
492.6	5461
492.8	5457
493.0	5427
493.2	5413
493.4	5396
493.6	5400
493.8	5404
494.0	5403
494.2	5381
494.4	5368
494.6	5349
494.8	5340
495.0	5331
495.2	5317
495.4	5293
495.6	5284
495.8	5274
496.0	5259
496.2	5247
496.4	5237
496.6	5231
496.8	5230
497.0	5227
497.2	5213
497.4	5195
497.6	5176
497.8	5158
498.0	5143
498.2	5123
498.4	5116
498.6	5112
498.8	5095
499.0	5075
499.2	5060
499.4	5043
499.6	5046
499.8	5043
500.0	5028
500.2	5013
500.4	4987
500.6	4976
500.8	4974
501.0	4955
501.2	4949
501.4	4944
501.6	4929
501.8	4912
502.0	4892
502.2	4863
502.4	4854
502.6	4842
502.8	4826
503.0	4801
503.2	4782
503.4	4786
503.6	4790
503.8	4780
504.0	4754
504.2	4727
504.4	4699
504.6	4692
504.8	4677
505.0	4665
505.2	4657
505.4	4643
505.6	4621
505.8	4614
506.0	4592
506.2	4577
506.4	4573
506.6	4555
506.8	4539
507.0	4535
507.2	4517
507.4	4501
507.6	4489
507.8	4467
508.0	4451
508.2	4436
508.4	4422
508.6	4402
508.8	4386
509.0	4359
509.2	4344
509.4	4326
509.6	4318
509.8	4307
510.0	4296
510.2	4282
510.4	4271
510.6	4250
510.8	4235
511.0	4215
511.2	4203
511.4	4192
511.6	4178
511.8	4165
512.0	4152
512.2	4132
512.4	4129
512.6	4117
512.8	4099
513.0	4075
513.2	4049
513.4	4028
513.6	4014
513.8	4003
514.0	3984
514.2	3971
514.4	3960
514.6	3955
514.8	3939
515.0	3930
515.2	3906
515.4	3891
515.6	3879
515.8	3860
516.0	3839
516.2	3828
516.4	3816
516.6	3804
516.8	3802
517.0	3785
517.2	3777
517.4	3764
517.6	3742
517.8	3717
518.0	3710
518.2	3693
518.4	3693
518.6	3682
518.8	3662
519.0	3637
519.2	3624
519.4	3599
519.6	3574
519.8	3558
520.0	3544
520.2	3535
520.4	3526
520.6	3518
520.8	3504
521.0	3505
521.2	3491
521.4	3477
521.6	3451
521.8	3434
522.0	3423
522.2	3414
522.4	3401
522.6	3377
522.8	3359
523.0	3351
523.2	3339
523.4	3319
523.6	3310
523.8	3292
524.0	3283
524.2	3282
524.4	3271
524.6	3261
524.8	3253
525.0	3235
525.2	3219
525.4	3213
525.6	3191
525.8	3179
526.0	3165
526.2	3140
526.4	3122
526.6	3107
526.8	3093
527.0	3076
527.2	3069
527.4	3061
527.6	3052
527.8	3040
528.0	3036
528.2	3017
528.4	3004
528.6	2990
528.8	2975
529.0	2961
529.2	2964
529.4	2962
529.6	2951
529.8	2939
530.0	2922
530.2	2896
530.4	2888
530.6	2869
530.8	2854
531.0	2845
531.2	2833
531.4	2822
531.6	2821
531.8	2814
532.0	2810
532.2	2794
532.4	2766
532.6	2752
532.8	2732
533.0	2725
533.2	2716
533.4	2700
533.6	2690
533.8	2683
534.0	2672
534.2	2666
534.4	2656
534.6	2635
534.8	2623
535.0	2607
535.2	2599
535.4	2592
535.6	2587
535.8	2572
536.0	2560
536.2	2547
536.4	2539
536.6	2530
536.8	2523
537.0	2504
537.2	2493
537.4	2480
537.6	2470
537.8	2461
538.0	2451
538.2	2432
538.4	2420
538.6	2411
538.8	2402
539.0	2393
539.2	2386
539.4	2372
539.6	2362
539.8	2349
540.0	2339
540.2	2323
540.4	2310
540.6	2291
540.8	2278
541.0	2262
541.2	2253
541.4	2247
541.6	2241
541.8	2234
542.0	2228
542.2	2217
542.4	2207
542.6	2197
542.8	2182
543.0	2172
543.2	2156
543.4	2147
543.6	2139
543.8	2124
544.0	2113
544.2	2103
544.4	2090
544.6	2086
544.8	2070
545.0	2059
545.2	2047
545.4	2037
545.6	2035
545.8	2035
546.0	2025
546.2	2019
546.4	2000
546.6	1984
546.8	1972
547.0	1962
547.2	1951
547.4	1942
547.6	1933
547.8	1919
548.0	1908
548.2	1889
548.4	1876
548.6	1867
548.8	1870
549.0	1865
549.2	1862
549.4	1851
549.6	1839
549.8	1824
550.0	1813
550.2	1802
550.4	1794
550.6	1789
550.8	1779
551.0	1769
551.2	1759
551.4	1756
551.6	1746
551.8	1733
552.0	1718
552.2	1705
552.4	1699
552.6	1695
552.8	1691
553.0	1682
553.2	1667
553.4	1652
553.6	1642
553.8	1634
554.0	1633
554.2	1628
554.4	1615
554.6	1602
554.8	1593
555.0	1593
555.2	1593
555.4	1585
555.6	1569
555.8	1554
556.0	1534
556.2	1525
556.4	1518
556.6	1511
556.8	1507
557.0	1502
557.2	1494
557.4	1485
557.6	1477
557.8	1474
558.0	1467
558.2	1453
558.4	1445
558.6	1432
558.8	1425
559.0	1421
559.2	1410
559.4	1401
559.6	1397
559.8	1383
560.0	1377
560.2	1368
560.4	1358
560.6	1354
560.8	1352
561.0	1343
561.2	1338
561.4	1334
561.6	1329
561.8	1320
562.0	1310
562.2	1299
562.4	1289
562.6	1290
562.8	1279
563.0	1273
563.2	1269
563.4	1259
563.6	1254
563.8	1251
564.0	1239
564.2	1235
564.4	1228
564.6	1216
564.8	1213
565.0	1208
565.2	1201
565.4	1191
565.6	1183
565.8	1179
566.0	1173
566.2	1167
566.4	1162
566.6	1154
566.8	1150
567.0	1144
567.2	1133
567.4	1125
567.6	1118
567.8	1112
568.0	1113
568.2	1113
568.4	1109
568.6	1099
568.8	1088
569.0	1081
569.2	1077
569.4	1074
569.6	1070
569.8	1064
570.0	1056
570.2	1051
570.4	1040
570.6	1027
570.8	1019
571.0	1015
571.2	1015
571.4	1016
571.6	1013
571.8	1008
572.0	998.4
572.2	990.6
572.4	984.7
572.6	977.7
572.8	972.3
573.0	969.0
573.2	963.8
573.4	962.2
573.6	952.8
573.8	943.8
574.0	933.9
574.2	925.2
574.4	923.8
574.6	923.1
574.8	916.4
575.0	915.0
575.2	909.0
575.4	902.9
575.6	901.8
575.8	897.1
576.0	886.7
576.2	883.4
576.4	878.2
576.6	868.6
576.8	866.0
577.0	862.4
577.2	855.4
577.4	855.8
577.6	854.5
577.8	846.0
578.0	843.1
578.2	837.1
578.4	832.8
578.6	832.9
578.8	826.5
579.0	819.8
579.2	819.0
579.4	811.1
579.6	803.6
579.8	801.4
580.0	795.2
580.2	788.2
580.4	784.8
580.6	778.4
580.8	775.6
581.0	774.7
581.2	771.4
581.4	765.2
581.6	758.0
581.8	754.1
582.0	753.9
582.2	750.9
582.4	748.8
582.6	746.5
582.8	738.6
583.0	730.2
583.2	726.8
583.4	726.5
583.6	720.6
583.8	716.4
584.0	712.4
584.2	708.0
584.4	703.9
584.6	698.1
584.8	690.5
585.0	684.8
585.2	686.1
585.4	684.9
585.6	678.7
585.8	669.3
586.0	667.8
586.2	663.9
586.4	663.0
586.6	658.7
586.8	656.7
587.0	654.7
587.2	653.7
587.4	648.7
587.6	644.7
587.8	640.1
588.0	635.7
588.2	634.9
588.4	628.1
588.6	621.9
588.8	619.3
589.0	616.8
589.2	614.0
589.4	614.6
589.6	607.1
589.8	603.9
590.0	601.4
590.2	596.6
590.4	597.0
590.6	597.5
590.8	589.9
591.0	587.6
591.2	582.2
591.4	574.8
591.6	571.8
591.8	571.4
592.0	566.9
592.2	565.6
592.4	561.2
592.6	557.4
592.8	552.7
593.0	549.9
593.2	545.3
593.4	543.7
593.6	541.2
593.8	538.0
594.0	537.0
594.2	534.5
594.4	529.9
594.6	527.1
594.8	521.1
595.0	516.4
595.2	514.2
595.4	514.9
595.6	512.1
595.8	510.3
596.0	504.8
596.2	500.9
596.4	495.7
596.6	492.5
596.8	486.6
597.0	484.0
597.2	483.9
597.4	482.4
597.6	481.4
597.8	478.0
598.0	474.0
598.2	471.6
598.4	470.2
598.6	468.2
598.8	465.5
599.0	464.2
599.2	458.0
599.4	454.0
599.6	445.3
599.8	442.6
600.0	441.1
600.2	443.7
600.4	440.8
600.6	438.4
600.8	432.3
601.0	430.4
601.2	428.2
601.4	426.3
601.6	423.1
601.8	419.8
602.0	418.5
602.2	417.5
602.4	415.3
602.6	412.7
602.8	410.9
603.0	407.8
603.2	403.3
603.4	399.3
603.6	395.2
603.8	394.1
604.0	391.8
604.2	390.8
604.4	388.5
604.6	388.4
604.8	386.0
605.0	386.9
605.2	382.2
605.4	378.5
605.6	373.0
605.8	368.5
606.0	366.4
606.2	366.2
606.4	365.2
606.6	365.6
606.8	364.1
607.0	362.2
607.2	360.8
607.4	356.9
607.6	355.3
607.8	355.1
608.0	353.5
608.2	350.8
608.4	347.0
608.6	345.2
608.8	345.2
609.0	343.0
609.2	342.2
609.4	337.5
609.6	333.6
609.8	331.0
610.0	329.4
610.2	324.4
610.4	322.6
610.6	319.3
610.8	319.6
611.0	322.4
611.2	323.8
611.4	321.7
611.6	317.4
611.8	313.4
612.0	308.8
612.2	306.5
612.4	302.0
612.6	301.3
612.8	300.7
613.0	301.9
613.2	301.7
613.4	298.2
613.6	293.3
613.8	290.3
614.0	288.9
614.2	286.5
614.4	286.7
614.6	283.8
614.8	281.5
615.0	280.5
615.2	281.7
615.4	280.4
615.6	279.9
615.8	276.9
616.0	272.0
616.2	268.5
616.4	266.5
616.6	264.9
616.8	265.1
617.0	263.6
617.2	260.7
617.4	257.9
617.6	256.1
617.8	255.9
618.0	258.5
618.2	260.3
618.4	258.7
618.6	256.7
618.8	254.7
619.0	250.4
619.2	247.5
619.4	245.1
619.6	242.0
619.8	241.8
620.0	242.2
620.2	240.9
620.4	239.8
620.6	238.9
620.8	235.2
621.0	233.0
621.2	231.4
621.4	228.7
621.6	225.5
621.8	225.7
622.0	221.9
622.2	223.9
622.4	226.3
622.6	224.1
622.8	220.4
623.0	216.3
623.2	213.8
623.4	213.7
623.6	214.2
623.8	213.1
624.0	211.5
624.2	210.6
624.4	210.3
624.6	207.3
624.8	203.7
625.0	199.8
625.2	198.9
625.4	201.2
625.6	202.1
625.8	202.4
626.0	200.0
626.2	197.1
626.4	195.9
626.6	195.5
626.8	194.9
627.0	192.7
627.2	190.3
627.4	187.5
627.6	185.8
627.8	186.0
628.0	185.9
628.2	184.3
628.4	183.7
628.6	182.6
628.8	182.4
629.0	180.5
629.2	178.8
629.4	177.2
629.6	175.3
629.8	174.8
630.0	174.7
630.2	171.5
630.4	169.5
630.6	168.8
630.8	168.0
631.0	168.1
631.2	168.8
631.4	168.3
631.6	166.0
631.8	165.1
632.0	163.4
632.2	161.8
632.4	162.4
632.6	162.2
632.8	160.4
633.0	160.0
633.2	156.9
633.4	154.4
633.6	153.4
633.8	152.8
634.0	152.6
634.2	151.9
634.4	150.7
634.6	150.2
634.8	149.2
635.0	149.0
635.2	147.4
635.4	146.0
635.6	145.4
635.8	145.5
636.0	144.7
636.2	143.9
636.4	143.7
636.6	144.0
636.8	143.9
637.0	143.0
637.2	140.9
637.4	138.3
637.6	138.3
637.8	136.4
638.0	134.7
638.2	132.4
638.4	131.3
638.6	130.1
638.8	131.6
639.0	131.9
639.2	130.9
639.4	129.3
639.6	129.6
639.8	128.0
640.0	127.5
640.2	126.9
640.4	125.0
640.6	123.9
640.8	125.3
641.0	124.3
641.2	123.6
641.4	123.1
641.6	121.2
641.8	119.8
642.0	119.6
642.2	118.5
642.4	117.6
642.6	116.4
642.8	113.6
643.0	113.0
643.2	113.5
643.4	115.0
643.6	114.7
643.8	113.6
644.0	112.2
644.2	110.2
644.4	109.7
644.6	108.6
644.8	106.3
645.0	105.6
645.2	104.7
645.4	103.9
645.6	103.8
645.8	103.0
646.0	102.9
646.2	102.2
646.4	99.59
646.6	98.66
646.8	98.66
647.0	98.84
647.2	99.55
647.4	98.48
647.6	97.59
647.8	96.01
648.0	96.05
648.2	95.71
648.4	95.29
648.6	93.24
648.8	93.22
649.0	92.33
649.2	92.80
649.4	93.86
649.6	94.04
649.8	93.12
650.0	90.88
650.2	89.18
650.4	88.24
650.6	87.37
650.8	87.30
651.0	87.05
651.2	86.67
651.4	86.83
651.6	86.17
651.8	83.74
652.0	82.84
652.2	81.14
652.4	81.53
652.6	82.39
652.8	81.90
653.0	81.23
653.2	81.44
653.4	80.07
653.6	79.54
653.8	79.72
654.0	77.51
654.2	76.55
654.4	75.65
654.6	74.78
654.8	75.08
655.0	76.23
655.2	75.18
655.4	76.07
655.6	75.22
655.8	74.84
656.0	74.14
656.2	73.75
656.4	73.75
656.6	74.65
656.8	74.07
657.0	73.83
657.2	72.31
657.4	70.62
657.6	69.21
657.8	67.75
658.0	67.18
658.2	66.95
658.4	67.97
658.6	67.96
658.8	67.75
659.0	67.73
659.2	67.06
659.4	66.12
659.6	65.76
659.8	64.59
660.0	63.94
660.2	64.19
660.4	64.15
660.6	63.60
660.8	63.31
661.0	62.72
661.2	61.65
661.4	60.92
661.6	60.74
661.8	59.53
662.0	59.49
662.2	59.45
662.4	60.21
662.6	60.44
662.8	60.46
663.0	59.55
663.2	57.84
663.4	56.14
663.6	57.43
663.8	58.24
664.0	58.24
664.2	59.06
664.4	57.24
664.6	55.47
664.8	55.71
665.0	55.57
665.2	53.94
665.4	53.84
665.6	52.12
665.8	51.31
666.0	51.73
666.2	51.83
666.4	51.04
666.6	50.22
666.8	49.18
667.0	48.50
667.2	48.74
667.4	48.68
667.6	48.76
667.8	49.05
668.0	50.32
668.2	50.89
668.4	50.32
668.6	48.97
668.8	47.76
669.0	47.35
669.2	48.47
669.4	48.32
669.6	48.51
669.8	48.15
670.0	47.95
670.2	47.93
670.4	47.53
670.6	46.00
670.8	45.19
671.0	44.66
671.2	44.16
671.4	44.40
671.6	44.60
671.8	44.81
672.0	44.68
672.2	44.10
672.4	43.20
672.6	42.83
672.8	43.06
673.0	43.41
673.2	42.95
673.4	42.20
673.6	42.34
673.8	43.07
674.0	43.45
674.2	42.44
674.4	40.13
674.6	38.32
674.8	37.91
675.0	38.70
675.2	39.68
675.4	40.08
675.6	40.06
675.8	40.11
676.0	39.70
676.2	39.30
676.4	37.73
676.6	36.71
676.8	35.53
677.0	36.28
677.2	36.80
677.4	37.60
677.6	36.59
677.8	35.50
678.0	34.44
678.2	35.14
678.4	35.87
678.6	35.94
678.8	36.10
679.0	35.20
679.2	34.03
679.4	34.39
679.6	34.23
679.8	34.16
680.0	34.26

