Sample:	'20211010A(EM)
File name:	B-CDS 4.FDS
Run date:	'09:21:01, 06/08/2023
Operator:	Administrator
Comment:	'

Instrument
Model:	F-4700 FL Spectrophotometer
Serial number:	2019-001
ROM Version:	5J24010 00

Instrument parameters
Measurement type:	Wavelength scan
Scan mode:	Emission
Data mode:	Fluorescence
EX WL:	350.0 nm
EM  Start WL:	370.0 nm
EM  End WL:	680.0 nm
Scan speed:	1200 nm/min
Delay:	0.0 s
EX Slit:	10.0 nm
EM Slit:	10.0 nm
PMT Voltage:	550 V
Response:	0.002 s
Corrected spectra:	Off
Shutter control:	On

Processing performed
Savitsky-Golay smoothed
Smoothing order:	3
Number of points:	7
Number of times:	1

Peak integration
Integration method:	Rectangular
Sensitivity:	1
Threshold:	1.000

Peaks
No.	Start(nm)	Apex(nm)	End(nm)	Height(Data)	Valley(nm)	Valley(Data)
1	373.4	375.8	376.8	7.016	376.8	5.789
2	376.8	377.6	379.8	6.934	379.8	5.638
3	379.8	380.6	381.6	7.580	381.6	6.312
4	381.6	386.8	389.4	8.349	389.4	7.338
5	389.4	394.4	395.0	10.43	395.0	8.100
6	395.0	491.8	493.4	3926	493.4	3901
7	493.4	494.4	653.0	3920	653.0	99.96
8	653.0	653.6	659.4	104.3	659.4	82.25
9	659.4	660.0	670.6	86.01	670.6	56.37
10	670.6	671.2	675.6	58.83	675.6	47.24
11	675.6	676.8	678.8	51.49	678.8	43.33

Data points
nm	Data
370.0	7.329
370.2	6.448
370.4	6.317
370.6	6.606
370.8	6.982
371.0	6.577
371.2	6.768
371.4	6.669
371.6	6.442
371.8	6.746
372.0	6.793
372.2	6.096
372.4	6.170
372.6	6.087
372.8	5.744
373.0	5.692
373.2	5.408
373.4	5.351
373.6	5.382
373.8	5.880
374.0	5.921
374.2	5.987
374.4	6.099
374.6	6.482
374.8	6.396
375.0	6.402
375.2	6.407
375.4	6.759
375.6	7.015
375.8	7.016
376.0	6.824
376.2	6.285
376.4	6.262
376.6	6.091
376.8	5.789
377.0	5.810
377.2	6.063
377.4	6.714
377.6	6.934
377.8	6.536
378.0	6.329
378.2	6.137
378.4	6.102
378.6	6.360
378.8	6.346
379.0	6.025
379.2	6.106
379.4	6.158
379.6	5.899
379.8	5.638
380.0	6.082
380.2	6.495
380.4	6.901
380.6	7.580
380.8	7.531
381.0	7.307
381.2	7.238
381.4	7.026
381.6	6.312
381.8	6.353
382.0	6.685
382.2	7.088
382.4	7.417
382.6	7.177
382.8	6.702
383.0	6.709
383.2	6.780
383.4	6.753
383.6	7.020
383.8	6.947
384.0	6.991
384.2	7.015
384.4	7.161
384.6	7.227
384.8	6.882
385.0	6.948
385.2	7.054
385.4	7.140
385.6	7.636
385.8	7.621
386.0	6.671
386.2	6.743
386.4	7.279
386.6	7.864
386.8	8.349
387.0	7.943
387.2	7.551
387.4	7.352
387.6	7.775
387.8	7.431
388.0	7.538
388.2	7.482
388.4	7.881
388.6	7.895
388.8	8.162
389.0	7.618
389.2	7.645
389.4	7.338
389.6	7.501
389.8	7.658
390.0	8.275
390.2	8.757
390.4	8.574
390.6	8.343
390.8	8.077
391.0	8.184
391.2	8.528
391.4	8.662
391.6	8.471
391.8	8.593
392.0	8.593
392.2	9.084
392.4	8.978
392.6	8.584
392.8	8.494
393.0	8.303
393.2	8.719
393.4	9.112
393.6	9.215
393.8	9.525
394.0	10.06
394.2	10.20
394.4	10.43
394.6	9.627
394.8	8.879
395.0	8.100
395.2	8.738
395.4	9.478
395.6	10.14
395.8	10.48
396.0	10.92
396.2	10.46
396.4	11.12
396.6	11.27
396.8	11.09
397.0	11.04
397.2	11.90
397.4	12.08
397.6	11.72
397.8	11.31
398.0	11.18
398.2	10.99
398.4	12.17
398.6	12.89
398.8	12.88
399.0	12.65
399.2	12.95
399.4	12.47
399.6	12.92
399.8	13.52
400.0	14.01
400.2	14.06
400.4	15.19
400.6	15.18
400.8	15.82
401.0	16.41
401.2	16.61
401.4	16.83
401.6	17.62
401.8	17.89
402.0	17.96
402.2	18.07
402.4	17.96
402.6	18.68
402.8	20.11
403.0	21.13
403.2	21.35
403.4	21.61
403.6	21.23
403.8	21.69
404.0	23.09
404.2	24.59
404.4	25.60
404.6	26.05
404.8	26.84
405.0	27.83
405.2	29.13
405.4	30.64
405.6	31.39
405.8	31.13
406.0	31.09
406.2	32.55
406.4	34.48
406.6	37.06
406.8	38.97
407.0	39.84
407.2	40.28
407.4	41.46
407.6	41.84
407.8	43.14
408.0	44.30
408.2	45.99
408.4	49.02
408.6	52.17
408.8	53.73
409.0	53.97
409.2	54.05
409.4	53.93
409.6	56.19
409.8	59.25
410.0	62.04
410.2	66.38
410.4	70.10
410.6	71.85
410.8	73.80
411.0	74.22
411.2	75.11
411.4	78.80
411.6	81.68
411.8	84.92
412.0	89.03
412.2	92.64
412.4	97.31
412.6	100.5
412.8	102.5
413.0	105.5
413.2	107.6
413.4	110.3
413.6	112.7
413.8	115.4
414.0	119.6
414.2	124.5
414.4	129.7
414.6	135.4
414.8	140.4
415.0	145.1
415.2	150.5
415.4	154.6
415.6	159.9
415.8	164.9
416.0	169.7
416.2	174.6
416.4	177.4
416.6	181.5
416.8	186.9
417.0	192.8
417.2	197.5
417.4	204.8
417.6	210.9
417.8	219.3
418.0	223.1
418.2	228.8
418.4	232.1
418.6	240.4
418.8	249.1
419.0	256.3
419.2	258.9
419.4	263.4
419.6	268.7
419.8	277.8
420.0	287.4
420.2	296.6
420.4	304.8
420.6	310.4
420.8	318.6
421.0	327.2
421.2	334.6
421.4	339.3
421.6	345.1
421.8	348.0
422.0	352.5
422.2	362.7
422.4	370.5
422.6	379.9
422.8	391.9
423.0	401.3
423.2	408.7
423.4	419.1
423.6	425.3
423.8	429.8
424.0	435.9
424.2	444.5
424.4	457.7
424.6	475.2
424.8	487.4
425.0	493.3
425.2	496.4
425.4	501.3
425.6	509.2
425.8	518.9
426.0	528.7
426.2	544.0
426.4	555.5
426.6	565.9
426.8	570.1
427.0	576.8
427.2	583.5
427.4	595.9
427.6	607.7
427.8	616.8
428.0	625.6
428.2	634.2
428.4	642.0
428.6	649.0
428.8	657.5
429.0	673.2
429.2	692.1
429.4	701.1
429.6	713.4
429.8	718.5
430.0	721.8
430.2	733.9
430.4	747.3
430.6	758.7
430.8	773.1
431.0	783.1
431.2	790.0
431.4	796.6
431.6	806.2
431.8	817.5
432.0	829.8
432.2	838.8
432.4	843.1
432.6	846.8
432.8	854.7
433.0	866.6
433.2	880.7
433.4	891.2
433.6	899.4
433.8	909.7
434.0	916.2
434.2	925.6
434.4	934.0
434.6	947.3
434.8	960.3
435.0	974.0
435.2	982.0
435.4	987.4
435.6	995.8
435.8	1012
436.0	1025
436.2	1039
436.4	1047
436.6	1051
436.8	1054
437.0	1065
437.2	1073
437.4	1087
437.6	1099
437.8	1112
438.0	1119
438.2	1131
438.4	1136
438.6	1146
438.8	1154
439.0	1160
439.2	1168
439.4	1175
439.6	1190
439.8	1200
440.0	1214
440.2	1222
440.4	1229
440.6	1226
440.8	1233
441.0	1233
441.2	1251
441.4	1268
441.6	1284
441.8	1291
442.0	1299
442.2	1300
442.4	1318
442.6	1325
442.8	1336
443.0	1339
443.2	1344
443.4	1345
443.6	1362
443.8	1372
444.0	1391
444.2	1401
444.4	1403
444.6	1406
444.8	1415
445.0	1427
445.2	1442
445.4	1463
445.6	1463
445.8	1467
446.0	1475
446.2	1479
446.4	1490
446.6	1507
446.8	1518
447.0	1524
447.2	1532
447.4	1539
447.6	1549
447.8	1558
448.0	1575
448.2	1575
448.4	1582
448.6	1598
448.8	1607
449.0	1622
449.2	1632
449.4	1637
449.6	1645
449.8	1657
450.0	1665
450.2	1677
450.4	1686
450.6	1698
450.8	1708
451.0	1721
451.2	1724
451.4	1730
451.6	1752
451.8	1766
452.0	1783
452.2	1792
452.4	1792
452.6	1792
452.8	1807
453.0	1814
453.2	1830
453.4	1846
453.6	1860
453.8	1876
454.0	1885
454.2	1896
454.4	1906
454.6	1920
454.8	1925
455.0	1943
455.2	1958
455.4	1979
455.6	1993
455.8	2009
456.0	2012
456.2	2020
456.4	2033
456.6	2043
456.8	2052
457.0	2074
457.2	2081
457.4	2101
457.6	2121
457.8	2133
458.0	2141
458.2	2156
458.4	2160
458.6	2178
458.8	2196
459.0	2211
459.2	2221
459.4	2240
459.6	2248
459.8	2267
460.0	2277
460.2	2287
460.4	2296
460.6	2312
460.8	2315
461.0	2345
461.2	2371
461.4	2398
461.6	2417
461.8	2431
462.0	2426
462.2	2436
462.4	2449
462.6	2467
462.8	2482
463.0	2513
463.2	2526
463.4	2535
463.6	2542
463.8	2556
464.0	2567
464.2	2591
464.4	2604
464.6	2616
464.8	2634
465.0	2653
465.2	2666
465.4	2676
465.6	2685
465.8	2692
466.0	2709
466.2	2732
466.4	2754
466.6	2772
466.8	2777
467.0	2771
467.2	2776
467.4	2790
467.6	2808
467.8	2835
468.0	2854
468.2	2872
468.4	2887
468.6	2905
468.8	2909
469.0	2918
469.2	2932
469.4	2945
469.6	2962
469.8	2988
470.0	2997
470.2	3005
470.4	3023
470.6	3037
470.8	3063
471.0	3091
471.2	3090
471.4	3096
471.6	3101
471.8	3118
472.0	3141
472.2	3167
472.4	3162
472.6	3169
472.8	3163
473.0	3175
473.2	3185
473.4	3205
473.6	3221
473.8	3238
474.0	3247
474.2	3264
474.4	3274
474.6	3289
474.8	3300
475.0	3321
475.2	3335
475.4	3344
475.6	3353
475.8	3357
476.0	3371
476.2	3393
476.4	3404
476.6	3408
476.8	3416
477.0	3422
477.2	3441
477.4	3450
477.6	3462
477.8	3464
478.0	3476
478.2	3487
478.4	3497
478.6	3512
478.8	3531
479.0	3537
479.2	3556
479.4	3566
479.6	3573
479.8	3581
480.0	3592
480.2	3602
480.4	3608
480.6	3605
480.8	3604
481.0	3605
481.2	3624
481.4	3653
481.6	3667
481.8	3680
482.0	3680
482.2	3680
482.4	3689
482.6	3700
482.8	3697
483.0	3709
483.2	3718
483.4	3725
483.6	3736
483.8	3751
484.0	3746
484.2	3750
484.4	3761
484.6	3767
484.8	3774
485.0	3781
485.2	3777
485.4	3790
485.6	3804
485.8	3816
486.0	3837
486.2	3835
486.4	3831
486.6	3833
486.8	3836
487.0	3832
487.2	3855
487.4	3853
487.6	3851
487.8	3854
488.0	3851
488.2	3861
488.4	3889
488.6	3892
488.8	3887
489.0	3885
489.2	3871
489.4	3885
489.6	3907
489.8	3906
490.0	3906
490.2	3895
490.4	3893
490.6	3903
490.8	3923
491.0	3919
491.2	3918
491.4	3915
491.6	3919
491.8	3926
492.0	3918
492.2	3913
492.4	3905
492.6	3916
492.8	3922
493.0	3919
493.2	3907
493.4	3901
493.6	3903
493.8	3911
494.0	3919
494.2	3919
494.4	3920
494.6	3910
494.8	3911
495.0	3912
495.2	3915
495.4	3915
495.6	3912
495.8	3906
496.0	3901
496.2	3904
496.4	3892
496.6	3883
496.8	3874
497.0	3873
497.2	3880
497.4	3889
497.6	3884
497.8	3882
498.0	3878
498.2	3873
498.4	3867
498.6	3872
498.8	3867
499.0	3855
499.2	3860
499.4	3859
499.6	3852
499.8	3858
500.0	3847
500.2	3829
500.4	3832
500.6	3836
500.8	3834
501.0	3833
501.2	3826
501.4	3817
501.6	3808
501.8	3795
502.0	3777
502.2	3769
502.4	3762
502.6	3765
502.8	3766
503.0	3761
503.2	3748
503.4	3735
503.6	3716
503.8	3718
504.0	3724
504.2	3740
504.4	3742
504.6	3721
504.8	3700
505.0	3681
505.2	3674
505.4	3672
505.6	3670
505.8	3661
506.0	3665
506.2	3670
506.4	3672
506.6	3648
506.8	3634
507.0	3620
507.2	3614
507.4	3606
507.6	3594
507.8	3582
508.0	3583
508.2	3588
508.4	3589
508.6	3565
508.8	3552
509.0	3538
509.2	3530
509.4	3526
509.6	3526
509.8	3517
510.0	3518
510.2	3504
510.4	3501
510.6	3492
510.8	3482
511.0	3476
511.2	3470
511.4	3462
511.6	3458
511.8	3446
512.0	3429
512.2	3423
512.4	3425
512.6	3426
512.8	3413
513.0	3400
513.2	3384
513.4	3363
513.6	3355
513.8	3349
514.0	3330
514.2	3326
514.4	3325
514.6	3325
514.8	3321
515.0	3324
515.2	3308
515.4	3290
515.6	3271
515.8	3264
516.0	3250
516.2	3246
516.4	3240
516.6	3237
516.8	3233
517.0	3221
517.2	3216
517.4	3197
517.6	3175
517.8	3165
518.0	3164
518.2	3160
518.4	3157
518.6	3146
518.8	3135
519.0	3121
519.2	3110
519.4	3100
519.6	3093
519.8	3103
520.0	3113
520.2	3114
520.4	3101
520.6	3076
520.8	3054
521.0	3037
521.2	3031
521.4	3030
521.6	3025
521.8	3012
522.0	3004
522.2	2988
522.4	2980
522.6	2957
522.8	2945
523.0	2940
523.2	2942
523.4	2945
523.6	2936
523.8	2923
524.0	2906
524.2	2903
524.4	2891
524.6	2888
524.8	2885
525.0	2882
525.2	2861
525.4	2856
525.6	2841
525.8	2837
526.0	2843
526.2	2840
526.4	2826
526.6	2818
526.8	2811
527.0	2800
527.2	2797
527.4	2786
527.6	2771
527.8	2769
528.0	2767
528.2	2763
528.4	2759
528.6	2743
528.8	2727
529.0	2721
529.2	2708
529.4	2709
529.6	2705
529.8	2704
530.0	2697
530.2	2686
530.4	2671
530.6	2665
530.8	2652
531.0	2652
531.2	2644
531.4	2625
531.6	2611
531.8	2607
532.0	2603
532.2	2604
532.4	2597
532.6	2579
532.8	2569
533.0	2561
533.2	2554
533.4	2545
533.6	2545
533.8	2548
534.0	2545
534.2	2542
534.4	2532
534.6	2519
534.8	2500
535.0	2484
535.2	2463
535.4	2462
535.6	2457
535.8	2457
536.0	2445
536.2	2431
536.4	2417
536.6	2413
536.8	2408
537.0	2413
537.2	2410
537.4	2396
537.6	2383
537.8	2370
538.0	2366
538.2	2368
538.4	2362
538.6	2348
538.8	2331
539.0	2319
539.2	2309
539.4	2310
539.6	2306
539.8	2300
540.0	2288
540.2	2268
540.4	2253
540.6	2245
540.8	2237
541.0	2237
541.2	2238
541.4	2226
541.6	2217
541.8	2207
542.0	2200
542.2	2197
542.4	2196
542.6	2183
542.8	2168
543.0	2152
543.2	2136
543.4	2125
543.6	2125
543.8	2119
544.0	2103
544.2	2097
544.4	2089
544.6	2079
544.8	2080
545.0	2076
545.2	2059
545.4	2058
545.6	2052
545.8	2043
546.0	2039
546.2	2032
546.4	2014
546.6	2005
546.8	1997
547.0	1989
547.2	1979
547.4	1970
547.6	1948
547.8	1943
548.0	1937
548.2	1930
548.4	1925
548.6	1921
548.8	1903
549.0	1899
549.2	1892
549.4	1883
549.6	1873
549.8	1865
550.0	1848
550.2	1842
550.4	1842
550.6	1843
550.8	1838
551.0	1828
551.2	1812
551.4	1795
551.6	1787
551.8	1795
552.0	1802
552.2	1794
552.4	1783
552.6	1760
552.8	1744
553.0	1732
553.2	1732
553.4	1719
553.6	1719
553.8	1713
554.0	1706
554.2	1696
554.4	1689
554.6	1680
554.8	1676
555.0	1660
555.2	1646
555.4	1636
555.6	1628
555.8	1625
556.0	1612
556.2	1597
556.4	1587
556.6	1580
556.8	1575
557.0	1564
557.2	1559
557.4	1557
557.6	1559
557.8	1554
558.0	1552
558.2	1541
558.4	1542
558.6	1536
558.8	1532
559.0	1514
559.2	1502
559.4	1487
559.6	1479
559.8	1475
560.0	1472
560.2	1459
560.4	1452
560.6	1440
560.8	1431
561.0	1430
561.2	1424
561.4	1415
561.6	1413
561.8	1404
562.0	1396
562.2	1394
562.4	1391
562.6	1384
562.8	1378
563.0	1370
563.2	1357
563.4	1346
563.6	1340
563.8	1337
564.0	1339
564.2	1343
564.4	1334
564.6	1320
564.8	1308
565.0	1297
565.2	1288
565.4	1284
565.6	1280
565.8	1280
566.0	1278
566.2	1274
566.4	1255
566.6	1249
566.8	1247
567.0	1240
567.2	1236
567.4	1229
567.6	1215
567.8	1219
568.0	1218
568.2	1210
568.4	1203
568.6	1190
568.8	1186
569.0	1188
569.2	1180
569.4	1172
569.6	1171
569.8	1162
570.0	1155
570.2	1152
570.4	1145
570.6	1140
570.8	1140
571.0	1127
571.2	1117
571.4	1114
571.6	1109
571.8	1107
572.0	1100
572.2	1092
572.4	1088
572.6	1083
572.8	1081
573.0	1077
573.2	1070
573.4	1068
573.6	1056
573.8	1048
574.0	1041
574.2	1037
574.4	1035
574.6	1034
574.8	1027
575.0	1020
575.2	1005
575.4	999.4
575.6	995.2
575.8	997.6
576.0	1002
576.2	999.6
576.4	984.6
576.6	976.5
576.8	966.1
577.0	961.9
577.2	964.2
577.4	962.0
577.6	956.6
577.8	948.6
578.0	947.8
578.2	943.6
578.4	946.8
578.6	943.6
578.8	934.3
579.0	920.9
579.2	919.3
579.4	912.9
579.6	911.6
579.8	907.5
580.0	904.9
580.2	901.1
580.4	899.4
580.6	892.3
580.8	887.3
581.0	881.7
581.2	881.5
581.4	874.8
581.6	866.3
581.8	859.5
582.0	853.3
582.2	851.5
582.4	853.4
582.6	852.4
582.8	848.5
583.0	838.0
583.2	830.1
583.4	827.3
583.6	827.8
583.8	825.8
584.0	827.0
584.2	814.9
584.4	810.1
584.6	804.5
584.8	799.5
585.0	792.1
585.2	790.2
585.4	783.9
585.6	779.5
585.8	775.0
586.0	775.1
586.2	776.7
586.4	768.7
586.6	764.8
586.8	757.3
587.0	748.8
587.2	745.5
587.4	749.8
587.6	741.7
587.8	741.8
588.0	738.7
588.2	730.3
588.4	720.3
588.6	721.1
588.8	715.3
589.0	709.5
589.2	708.9
589.4	706.5
589.6	703.0
589.8	698.3
590.0	697.3
590.2	689.5
590.4	686.6
590.6	684.7
590.8	683.7
591.0	677.1
591.2	675.5
591.4	673.4
591.6	670.2
591.8	669.4
592.0	671.2
592.2	667.3
592.4	654.7
592.6	644.0
592.8	637.7
593.0	640.8
593.2	639.9
593.4	638.9
593.6	630.9
593.8	625.0
594.0	619.8
594.2	620.2
594.4	611.2
594.6	608.5
594.8	604.6
595.0	604.5
595.2	601.5
595.4	605.0
595.6	603.4
595.8	604.1
596.0	602.3
596.2	595.0
596.4	587.0
596.6	583.5
596.8	578.8
597.0	579.3
597.2	579.3
597.4	576.4
597.6	573.0
597.8	566.9
598.0	562.0
598.2	558.6
598.4	558.9
598.6	557.0
598.8	556.8
599.0	551.5
599.2	545.9
599.4	537.6
599.6	536.9
599.8	530.3
600.0	530.2
600.2	525.9
600.4	522.5
600.6	519.5
600.8	518.7
601.0	516.7
601.2	517.0
601.4	515.2
601.6	513.6
601.8	507.8
602.0	502.1
602.2	499.8
602.4	494.2
602.6	493.5
602.8	490.8
603.0	484.6
603.2	484.8
603.4	481.8
603.6	475.8
603.8	474.1
604.0	468.3
604.2	465.5
604.4	466.2
604.6	463.4
604.8	462.4
605.0	463.8
605.2	458.1
605.4	453.1
605.6	446.4
605.8	438.7
606.0	435.0
606.2	437.3
606.4	435.7
606.6	434.0
606.8	434.6
607.0	429.6
607.2	427.6
607.4	426.6
607.6	428.1
607.8	423.4
608.0	419.1
608.2	415.2
608.4	411.2
608.6	412.1
608.8	412.9
609.0	407.5
609.2	405.7
609.4	407.0
609.6	404.6
609.8	404.1
610.0	399.5
610.2	393.4
610.4	390.6
610.6	389.6
610.8	385.8
611.0	381.9
611.2	378.4
611.4	374.2
611.6	374.5
611.8	377.1
612.0	376.3
612.2	377.0
612.4	371.4
612.6	364.8
612.8	363.9
613.0	363.4
613.2	360.3
613.4	361.6
613.6	355.7
613.8	349.5
614.0	347.3
614.2	348.5
614.4	346.5
614.6	345.6
614.8	343.0
615.0	340.5
615.2	340.4
615.4	340.4
615.6	339.8
615.8	333.7
616.0	328.7
616.2	326.2
616.4	327.5
616.6	329.0
616.8	331.7
617.0	327.5
617.2	322.2
617.4	318.1
617.6	314.6
617.8	312.2
618.0	310.7
618.2	306.7
618.4	306.0
618.6	306.8
618.8	307.6
619.0	308.8
619.2	304.2
619.4	297.6
619.6	294.6
619.8	293.2
620.0	293.6
620.2	296.0
620.4	293.4
620.6	287.6
620.8	284.6
621.0	280.5
621.2	282.8
621.4	286.3
621.6	286.9
621.8	282.6
622.0	280.8
622.2	277.1
622.4	278.0
622.6	274.9
622.8	271.2
623.0	268.0
623.2	268.2
623.4	265.7
623.6	264.1
623.8	261.8
624.0	260.7
624.2	259.4
624.4	260.1
624.6	254.7
624.8	251.6
625.0	251.0
625.2	246.2
625.4	245.2
625.6	248.1
625.8	248.4
626.0	249.9
626.2	249.2
626.4	243.5
626.6	240.7
626.8	237.6
627.0	240.3
627.2	239.9
627.4	237.0
627.6	234.2
627.8	230.9
628.0	228.4
628.2	230.5
628.4	228.7
628.6	227.5
628.8	224.0
629.0	219.2
629.2	219.6
629.4	217.7
629.6	218.7
629.8	218.7
630.0	216.0
630.2	214.7
630.4	214.6
630.6	212.3
630.8	213.7
631.0	211.5
631.2	208.8
631.4	209.0
631.6	206.6
631.8	204.2
632.0	202.6
632.2	202.3
632.4	200.3
632.6	202.5
632.8	202.6
633.0	200.7
633.2	197.4
633.4	193.0
633.6	186.3
633.8	186.9
634.0	186.8
634.2	188.1
634.4	190.6
634.6	188.0
634.8	184.1
635.0	184.5
635.2	182.6
635.4	182.4
635.6	183.4
635.8	182.3
636.0	179.5
636.2	177.8
636.4	172.8
636.6	171.5
636.8	173.2
637.0	173.8
637.2	174.2
637.4	173.2
637.6	168.7
637.8	166.4
638.0	167.5
638.2	165.0
638.4	163.3
638.6	163.5
638.8	163.3
639.0	162.0
639.2	162.1
639.4	161.1
639.6	157.8
639.8	158.2
640.0	159.3
640.2	158.5
640.4	156.3
640.6	154.0
640.8	150.9
641.0	150.4
641.2	152.0
641.4	152.6
641.6	152.8
641.8	153.2
642.0	151.1
642.2	148.8
642.4	147.4
642.6	144.2
642.8	142.8
643.0	142.7
643.2	139.9
643.4	139.7
643.6	139.8
643.8	139.2
644.0	139.6
644.2	138.8
644.4	137.2
644.6	136.0
644.8	134.1
645.0	131.5
645.2	134.0
645.4	134.2
645.6	133.6
645.8	133.0
646.0	130.9
646.2	129.2
646.4	130.1
646.6	127.1
646.8	124.4
647.0	124.0
647.2	126.0
647.4	127.6
647.6	126.4
647.8	122.9
648.0	120.4
648.2	120.5
648.4	123.9
648.6	124.0
648.8	122.8
649.0	120.8
649.2	119.7
649.4	118.2
649.6	117.9
649.8	116.2
650.0	115.9
650.2	115.9
650.4	115.7
650.6	115.0
650.8	113.9
651.0	112.3
651.2	110.6
651.4	110.3
651.6	110.1
651.8	110.2
652.0	109.9
652.2	107.7
652.4	103.7
652.6	102.1
652.8	100.7
653.0	99.96
653.2	102.6
653.4	103.2
653.6	104.3
653.8	104.0
654.0	101.3
654.2	100.1
654.4	99.83
654.6	98.30
654.8	97.40
655.0	95.89
655.2	93.86
655.4	94.75
655.6	94.39
655.8	94.81
656.0	96.22
656.2	94.99
656.4	94.61
656.6	93.80
656.8	92.11
657.0	91.39
657.2	90.10
657.4	86.76
657.6	85.31
657.8	84.83
658.0	86.17
658.2	86.01
658.4	86.51
658.6	86.51
658.8	84.76
659.0	83.54
659.2	83.62
659.4	82.25
659.6	83.57
659.8	85.38
660.0	86.01
660.2	85.66
660.4	84.95
660.6	82.10
660.8	79.30
661.0	79.64
661.2	80.72
661.4	80.82
661.6	80.39
661.8	78.15
662.0	77.56
662.2	77.38
662.4	77.60
662.6	76.99
662.8	76.65
663.0	74.60
663.2	74.68
663.4	73.68
663.6	72.32
663.8	71.88
664.0	71.59
664.2	71.33
664.4	71.70
664.6	72.49
664.8	71.45
665.0	70.32
665.2	70.42
665.4	69.45
665.6	67.82
665.8	68.23
666.0	68.79
666.2	68.49
666.4	70.03
666.6	68.27
666.8	67.63
667.0	67.49
667.2	66.81
667.4	65.61
667.6	65.60
667.8	63.51
668.0	64.60
668.2	63.36
668.4	62.41
668.6	61.02
668.8	60.66
669.0	59.87
669.2	60.95
669.4	60.90
669.6	61.58
669.8	60.06
670.0	59.06
670.2	58.31
670.4	56.56
670.6	56.37
670.8	57.36
671.0	58.56
671.2	58.83
671.4	58.73
671.6	57.09
671.8	57.40
672.0	57.48
672.2	57.99
672.4	57.89
672.6	56.87
672.8	54.78
673.0	54.74
673.2	52.41
673.4	50.99
673.6	52.11
673.8	51.29
674.0	51.06
674.2	52.36
674.4	51.95
674.6	52.11
674.8	52.37
675.0	51.03
675.2	48.93
675.4	47.81
675.6	47.24
675.8	47.50
676.0	48.10
676.2	49.08
676.4	48.95
676.6	50.75
676.8	51.49
677.0	50.10
677.2	48.88
677.4	46.59
677.6	45.00
677.8	45.69
678.0	45.79
678.2	44.80
678.4	44.93
678.6	43.65
678.8	43.33
679.0	44.45
679.2	45.76
679.4	47.09
679.6	47.71
679.8	46.08
680.0	40.95

