Sample:	'20211010A(EM)
File name:	B-CDS 9 900uM.FDS
Run date:	'10:13:41, 06/08/2023
Operator:	Administrator
Comment:	'

Instrument
Model:	F-4700 FL Spectrophotometer
Serial number:	2019-001
ROM Version:	5J24010 00

Instrument parameters
Measurement type:	Wavelength scan
Scan mode:	Emission
Data mode:	Fluorescence
EX WL:	350.0 nm
EM  Start WL:	370.0 nm
EM  End WL:	680.0 nm
Scan speed:	1200 nm/min
Delay:	0.0 s
EX Slit:	10.0 nm
EM Slit:	10.0 nm
PMT Voltage:	450 V
Response:	0.002 s
Corrected spectra:	Off
Shutter control:	On

Processing performed
Savitsky-Golay smoothed
Smoothing order:	3
Number of points:	7
Number of times:	1

Peak integration
Integration method:	Rectangular
Sensitivity:	1
Threshold:	1.000

Peaks
No.	Start(nm)	Apex(nm)	End(nm)	Height(Data)	Valley(nm)	Valley(Data)
1	370.0	482.0	483.4	1395	483.4	1391
2	483.4	485.6	486.8	1406	486.8	1401
3	486.8	487.6	488.2	1413	488.2	1403
4	488.2	488.8	680.0	1412	680.0	10.50

Data points
nm	Data
370.0	1.879
370.2	1.629
370.4	1.668
370.6	1.847
370.8	1.958
371.0	1.894
371.2	1.883
371.4	1.940
371.6	2.046
371.8	2.091
372.0	1.945
372.2	1.900
372.4	1.814
372.6	1.854
372.8	1.902
373.0	1.788
373.2	1.760
373.4	1.895
373.6	2.004
373.8	2.107
374.0	2.132
374.2	1.995
374.4	1.928
374.6	1.905
374.8	1.869
375.0	1.893
375.2	1.878
375.4	1.886
375.6	1.916
375.8	2.022
376.0	2.222
376.2	2.371
376.4	2.337
376.6	2.358
376.8	2.201
377.0	2.151
377.2	2.228
377.4	2.130
377.6	2.014
377.8	2.155
378.0	2.062
378.2	2.169
378.4	2.225
378.6	2.132
378.8	2.092
379.0	2.167
379.2	2.092
379.4	2.091
379.6	2.066
379.8	2.093
380.0	2.308
380.2	2.403
380.4	2.476
380.6	2.417
380.8	2.242
381.0	2.238
381.2	2.245
381.4	2.151
381.6	2.169
381.8	2.159
382.0	2.185
382.2	2.300
382.4	2.428
382.6	2.465
382.8	2.419
383.0	2.363
383.2	2.349
383.4	2.352
383.6	2.434
383.8	2.450
384.0	2.469
384.2	2.595
384.4	2.799
384.6	2.912
384.8	2.885
385.0	2.771
385.2	2.733
385.4	2.744
385.6	2.739
385.8	2.706
386.0	2.681
386.2	2.706
386.4	2.887
386.6	3.087
386.8	3.168
387.0	3.092
387.2	3.157
387.4	3.185
387.6	3.168
387.8	3.171
388.0	3.222
388.2	3.255
388.4	3.415
388.6	3.447
388.8	3.360
389.0	3.343
389.2	3.441
389.4	3.448
389.6	3.531
389.8	3.654
390.0	3.751
390.2	3.793
390.4	3.833
390.6	3.918
390.8	3.852
391.0	3.994
391.2	4.175
391.4	4.364
391.6	4.435
391.8	4.786
392.0	4.663
392.2	4.660
392.4	4.635
392.6	4.941
392.8	5.078
393.0	5.210
393.2	5.414
393.4	5.538
393.6	5.633
393.8	5.954
394.0	6.059
394.2	6.080
394.4	6.072
394.6	6.100
394.8	6.340
395.0	6.327
395.2	6.346
395.4	6.569
395.6	6.701
395.8	7.248
396.0	7.697
396.2	7.920
396.4	8.198
396.6	8.297
396.8	8.332
397.0	8.542
397.2	8.937
397.4	9.205
397.6	9.375
397.8	9.587
398.0	9.813
398.2	10.06
398.4	10.60
398.6	10.75
398.8	11.04
399.0	11.55
399.2	11.93
399.4	12.33
399.6	12.65
399.8	12.82
400.0	13.40
400.2	13.84
400.4	14.20
400.6	14.61
400.8	14.99
401.0	15.15
401.2	15.77
401.4	16.32
401.6	17.15
401.8	17.59
402.0	18.23
402.2	18.75
402.4	19.47
402.6	20.10
402.8	20.76
403.0	21.22
403.2	22.02
403.4	22.78
403.6	23.51
403.8	24.36
404.0	25.13
404.2	26.19
404.4	27.37
404.6	28.19
404.8	28.91
405.0	29.77
405.2	30.48
405.4	31.10
405.6	32.27
405.8	33.59
406.0	34.30
406.2	35.05
406.4	35.93
406.6	36.20
406.8	37.51
407.0	39.90
407.2	41.34
407.4	42.15
407.6	43.15
407.8	43.79
408.0	44.65
408.2	46.62
408.4	48.35
408.6	49.59
408.8	51.29
409.0	52.59
409.2	53.74
409.4	55.96
409.6	58.35
409.8	59.50
410.0	61.40
410.2	62.78
410.4	64.51
410.6	67.18
410.8	70.06
411.0	70.85
411.2	72.06
411.4	73.26
411.6	75.09
411.8	77.31
412.0	79.38
412.2	81.79
412.4	84.44
412.6	86.81
412.8	89.58
413.0	91.89
413.2	92.58
413.4	95.20
413.6	98.40
413.8	100.8
414.0	103.8
414.2	106.8
414.4	108.1
414.6	111.3
414.8	114.6
415.0	116.3
415.2	118.9
415.4	122.0
415.6	124.7
415.8	128.7
416.0	132.7
416.2	135.4
416.4	138.6
416.6	140.8
416.8	143.9
417.0	146.6
417.2	149.9
417.4	153.7
417.6	157.3
417.8	160.3
418.0	163.7
418.2	167.0
418.4	170.0
418.6	174.6
418.8	178.0
419.0	182.7
419.2	185.6
419.4	188.6
419.6	191.5
419.8	195.7
420.0	198.9
420.2	203.0
420.4	207.6
420.6	213.3
420.8	217.1
421.0	220.9
421.2	224.1
421.4	227.2
421.6	231.8
421.8	236.7
422.0	239.7
422.2	243.3
422.4	248.7
422.6	254.4
422.8	259.4
423.0	264.4
423.2	269.6
423.4	273.3
423.6	277.7
423.8	281.2
424.0	284.6
424.2	289.4
424.4	294.1
424.6	297.9
424.8	303.2
425.0	308.4
425.2	314.1
425.4	319.6
425.6	323.6
425.8	328.8
426.0	334.4
426.2	338.0
426.4	341.2
426.6	346.2
426.8	351.4
427.0	356.8
427.2	361.2
427.4	364.3
427.6	367.7
427.8	372.7
428.0	377.6
428.2	381.4
428.4	384.2
428.6	390.5
428.8	396.4
429.0	402.9
429.2	408.2
429.4	413.6
429.6	418.8
429.8	424.6
430.0	430.1
430.2	435.7
430.4	438.1
430.6	441.4
430.8	448.6
431.0	453.7
431.2	458.3
431.4	461.6
431.6	464.3
431.8	468.6
432.0	474.2
432.2	481.4
432.4	486.6
432.6	490.7
432.8	495.6
433.0	499.2
433.2	500.8
433.4	505.0
433.6	509.8
433.8	515.9
434.0	519.7
434.2	525.3
434.4	531.6
434.6	538.0
434.8	544.2
435.0	548.7
435.2	551.0
435.4	555.8
435.6	562.4
435.8	566.8
436.0	570.8
436.2	576.1
436.4	580.0
436.6	583.2
436.8	587.5
437.0	591.5
437.2	595.5
437.4	602.4
437.6	610.6
437.8	614.6
438.0	618.6
438.2	623.9
438.4	625.7
438.6	628.1
438.8	634.9
439.0	638.3
439.2	640.4
439.4	641.4
439.6	641.3
439.8	643.7
440.0	650.3
440.2	659.3
440.4	667.9
440.6	672.0
440.8	674.7
441.0	675.0
441.2	678.2
441.4	683.9
441.6	691.5
441.8	697.8
442.0	703.1
442.2	705.5
442.4	710.5
442.6	711.5
442.8	713.5
443.0	717.1
443.2	722.1
443.4	727.5
443.6	732.1
443.8	733.8
444.0	738.4
444.2	743.1
444.4	749.9
444.6	752.9
444.8	754.6
445.0	757.7
445.2	762.5
445.4	766.7
445.6	773.1
445.8	777.3
446.0	782.3
446.2	785.3
446.4	787.2
446.6	788.5
446.8	788.4
447.0	793.1
447.2	802.1
447.4	808.3
447.6	816.3
447.8	819.1
448.0	819.6
448.2	822.4
448.4	828.2
448.6	833.3
448.8	839.3
449.0	840.1
449.2	843.2
449.4	842.7
449.6	845.4
449.8	852.9
450.0	859.7
450.2	865.9
450.4	869.1
450.6	869.4
450.8	870.0
451.0	874.0
451.2	878.7
451.4	884.7
451.6	885.7
451.8	892.2
452.0	896.8
452.2	899.7
452.4	902.9
452.6	903.2
452.8	904.6
453.0	912.7
453.2	921.1
453.4	929.2
453.6	935.4
453.8	936.6
454.0	937.7
454.2	942.3
454.4	946.1
454.6	951.3
454.8	955.1
455.0	959.1
455.2	961.5
455.4	969.9
455.6	973.2
455.8	979.0
456.0	980.5
456.2	984.7
456.4	987.5
456.6	993.5
456.8	996.6
457.0	1002
457.2	1002
457.4	1006
457.6	1009
457.8	1016
458.0	1023
458.2	1029
458.4	1035
458.6	1038
458.8	1039
459.0	1043
459.2	1049
459.4	1057
459.6	1065
459.8	1068
460.0	1071
460.2	1074
460.4	1077
460.6	1082
460.8	1085
461.0	1089
461.2	1095
461.4	1100
461.6	1105
461.8	1109
462.0	1112
462.2	1116
462.4	1122
462.6	1125
462.8	1128
463.0	1131
463.2	1138
463.4	1143
463.6	1149
463.8	1152
464.0	1153
464.2	1156
464.4	1162
464.6	1164
464.8	1164
465.0	1169
465.2	1174
465.4	1180
465.6	1187
465.8	1189
466.0	1190
466.2	1195
466.4	1197
466.6	1204
466.8	1208
467.0	1209
467.2	1213
467.4	1215
467.6	1219
467.8	1224
468.0	1230
468.2	1233
468.4	1236
468.6	1240
468.8	1244
469.0	1242
469.2	1246
469.4	1247
469.6	1255
469.8	1257
470.0	1263
470.2	1262
470.4	1263
470.6	1263
470.8	1267
471.0	1270
471.2	1280
471.4	1281
471.6	1284
471.8	1285
472.0	1286
472.2	1294
472.4	1300
472.6	1302
472.8	1302
473.0	1303
473.2	1304
473.4	1308
473.6	1311
473.8	1317
474.0	1319
474.2	1321
474.4	1321
474.6	1321
474.8	1326
475.0	1333
475.2	1338
475.4	1341
475.6	1343
475.8	1343
476.0	1340
476.2	1341
476.4	1342
476.6	1345
476.8	1352
477.0	1356
477.2	1353
477.4	1351
477.6	1350
477.8	1351
478.0	1355
478.2	1357
478.4	1362
478.6	1367
478.8	1371
479.0	1373
479.2	1374
479.4	1373
479.6	1372
479.8	1377
480.0	1378
480.2	1378
480.4	1379
480.6	1383
480.8	1381
481.0	1383
481.2	1384
481.4	1385
481.6	1389
481.8	1395
482.0	1395
482.2	1393
482.4	1391
482.6	1392
482.8	1392
483.0	1392
483.2	1392
483.4	1391
483.6	1393
483.8	1397
484.0	1400
484.2	1400
484.4	1397
484.6	1397
484.8	1396
485.0	1399
485.2	1405
485.4	1405
485.6	1406
485.8	1406
486.0	1403
486.2	1403
486.4	1403
486.6	1402
486.8	1401
487.0	1402
487.2	1404
487.4	1410
487.6	1413
487.8	1408
488.0	1404
488.2	1403
488.4	1403
488.6	1409
488.8	1412
489.0	1409
489.2	1409
489.4	1407
489.6	1404
489.8	1403
490.0	1402
490.2	1402
490.4	1405
490.6	1406
490.8	1402
491.0	1395
491.2	1392
491.4	1392
491.6	1395
491.8	1397
492.0	1396
492.2	1392
492.4	1392
492.6	1393
492.8	1393
493.0	1387
493.2	1382
493.4	1381
493.6	1382
493.8	1382
494.0	1385
494.2	1386
494.4	1382
494.6	1379
494.8	1374
495.0	1369
495.2	1367
495.4	1367
495.6	1364
495.8	1362
496.0	1360
496.2	1359
496.4	1355
496.6	1354
496.8	1351
497.0	1348
497.2	1347
497.4	1344
497.6	1342
497.8	1344
498.0	1342
498.2	1341
498.4	1339
498.6	1334
498.8	1331
499.0	1327
499.2	1322
499.4	1317
499.6	1315
499.8	1315
500.0	1314
500.2	1315
500.4	1309
500.6	1299
500.8	1295
501.0	1291
501.2	1289
501.4	1292
501.6	1289
501.8	1287
502.0	1285
502.2	1279
502.4	1273
502.6	1271
502.8	1267
503.0	1267
503.2	1267
503.4	1264
503.6	1260
503.8	1257
504.0	1253
504.2	1249
504.4	1247
504.6	1241
504.8	1238
505.0	1233
505.2	1230
505.4	1229
505.6	1228
505.8	1224
506.0	1220
506.2	1209
506.4	1206
506.6	1206
506.8	1210
507.0	1211
507.2	1209
507.4	1202
507.6	1194
507.8	1187
508.0	1182
508.2	1179
508.4	1177
508.6	1174
508.8	1170
509.0	1167
509.2	1159
509.4	1152
509.6	1151
509.8	1148
510.0	1147
510.2	1145
510.4	1145
510.6	1139
510.8	1139
511.0	1137
511.2	1130
511.4	1125
511.6	1122
511.8	1117
512.0	1116
512.2	1114
512.4	1108
512.6	1102
512.8	1097
513.0	1096
513.2	1091
513.4	1089
513.6	1084
513.8	1079
514.0	1078
514.2	1075
514.4	1070
514.6	1066
514.8	1061
515.0	1058
515.2	1054
515.4	1050
515.6	1051
515.8	1049
516.0	1045
516.2	1041
516.4	1036
516.6	1034
516.8	1032
517.0	1030
517.2	1027
517.4	1020
517.6	1012
517.8	1007
518.0	1003
518.2	1001
518.4	999.2
518.6	997.7
518.8	995.4
519.0	991.7
519.2	986.5
519.4	982.3
519.6	977.4
519.8	976.7
520.0	972.5
520.2	966.1
520.4	959.2
520.6	959.6
520.8	960.2
521.0	959.6
521.2	955.1
521.4	948.5
521.6	943.3
521.8	941.5
522.0	938.9
522.2	937.6
522.4	935.0
522.6	931.4
522.8	929.8
523.0	923.3
523.2	917.9
523.4	915.6
523.6	914.0
523.8	912.2
524.0	909.9
524.2	905.5
524.4	900.4
524.6	894.1
524.8	892.1
525.0	888.7
525.2	884.9
525.4	883.3
525.6	880.0
525.8	875.4
526.0	871.8
526.2	868.7
526.4	865.2
526.6	863.7
526.8	861.0
527.0	860.0
527.2	854.9
527.4	850.7
527.6	848.0
527.8	846.2
528.0	843.7
528.2	843.7
528.4	839.8
528.6	835.2
528.8	833.0
529.0	828.8
529.2	824.2
529.4	821.4
529.6	817.3
529.8	814.2
530.0	811.1
530.2	809.0
530.4	806.8
530.6	804.4
530.8	801.8
531.0	797.9
531.2	791.5
531.4	788.5
531.6	786.3
531.8	782.2
532.0	781.9
532.2	778.3
532.4	777.7
532.6	776.3
532.8	774.0
533.0	769.6
533.2	766.0
533.4	759.5
533.6	757.1
533.8	755.5
534.0	753.8
534.2	752.2
534.4	748.4
534.6	744.0
534.8	738.0
535.0	732.6
535.2	727.7
535.4	726.1
535.6	723.7
535.8	722.6
536.0	721.7
536.2	720.4
536.4	716.0
536.6	715.1
536.8	710.8
537.0	707.9
537.2	705.1
537.4	702.3
537.6	698.9
537.8	697.3
538.0	695.8
538.2	694.4
538.4	691.2
538.6	686.6
538.8	684.8
539.0	680.0
539.2	675.5
539.4	669.5
539.6	666.6
539.8	666.2
540.0	665.9
540.2	663.7
540.4	658.6
540.6	653.1
540.8	648.9
541.0	646.8
541.2	646.8
541.4	645.9
541.6	643.0
541.8	640.8
542.0	637.2
542.2	632.7
542.4	631.7
542.6	628.8
542.8	625.8
543.0	621.3
543.2	618.3
543.4	612.8
543.6	608.3
543.8	603.9
544.0	601.2
544.2	598.1
544.4	596.8
544.6	594.7
544.8	593.6
545.0	591.5
545.2	589.2
545.4	586.2
545.6	582.6
545.8	580.5
546.0	577.7
546.2	572.3
546.4	569.0
546.6	566.8
546.8	563.7
547.0	564.0
547.2	563.1
547.4	557.8
547.6	555.4
547.8	551.9
548.0	546.9
548.2	544.6
548.4	540.9
548.6	536.9
548.8	533.8
549.0	531.3
549.2	528.3
549.4	528.0
549.6	524.9
549.8	522.7
550.0	520.8
550.2	517.6
550.4	513.2
550.6	511.6
550.8	508.1
551.0	505.0
551.2	502.8
551.4	497.8
551.6	496.7
551.8	495.0
552.0	495.5
552.2	493.7
552.4	490.6
552.6	485.3
552.8	482.4
553.0	478.5
553.2	478.0
553.4	476.2
553.6	474.0
553.8	471.8
554.0	468.6
554.2	466.5
554.4	462.6
554.6	459.8
554.8	456.8
555.0	454.1
555.2	450.9
555.4	450.4
555.6	447.9
555.8	446.8
556.0	442.8
556.2	439.6
556.4	437.0
556.6	435.3
556.8	432.8
557.0	430.3
557.2	426.0
557.4	424.1
557.6	422.7
557.8	421.1
558.0	418.6
558.2	417.0
558.4	413.6
558.6	412.3
558.8	410.4
559.0	408.9
559.2	407.1
559.4	406.3
559.6	402.1
559.8	399.4
560.0	396.8
560.2	395.3
560.4	394.5
560.6	393.9
560.8	391.4
561.0	388.5
561.2	385.3
561.4	382.7
561.6	379.9
561.8	378.3
562.0	376.3
562.2	374.9
562.4	372.9
562.6	371.3
562.8	369.7
563.0	367.1
563.2	364.0
563.4	361.2
563.6	359.7
563.8	358.6
564.0	357.4
564.2	354.7
564.4	354.0
564.6	352.5
564.8	351.5
565.0	348.2
565.2	345.3
565.4	343.1
565.6	341.5
565.8	340.3
566.0	337.8
566.2	336.0
566.4	335.3
566.6	334.4
566.8	331.1
567.0	329.7
567.2	327.5
567.4	325.7
567.6	323.3
567.8	321.2
568.0	318.0
568.2	316.7
568.4	316.0
568.6	313.6
568.8	311.9
569.0	310.7
569.2	309.5
569.4	308.7
569.6	308.0
569.8	306.2
570.0	305.7
570.2	304.0
570.4	300.8
570.6	297.9
570.8	297.0
571.0	296.8
571.2	296.6
571.4	294.2
571.6	290.6
571.8	287.5
572.0	285.7
572.2	285.2
572.4	284.2
572.6	282.5
572.8	284.0
573.0	282.8
573.2	280.9
573.4	279.3
573.6	276.8
573.8	274.3
574.0	274.8
574.2	271.7
574.4	270.3
574.6	269.4
574.8	268.0
575.0	266.0
575.2	264.9
575.4	261.8
575.6	259.4
575.8	257.5
576.0	256.2
576.2	255.0
576.4	255.5
576.6	253.9
576.8	252.5
577.0	250.1
577.2	248.5
577.4	248.4
577.6	247.7
577.8	246.6
578.0	245.2
578.2	243.7
578.4	241.3
578.6	240.8
578.8	238.0
579.0	235.3
579.2	235.0
579.4	235.1
579.6	235.2
579.8	236.1
580.0	234.3
580.2	230.8
580.4	228.3
580.6	225.7
580.8	224.8
581.0	224.6
581.2	223.3
581.4	222.0
581.6	220.1
581.8	219.4
582.0	218.0
582.2	216.8
582.4	215.3
582.6	214.9
582.8	213.9
583.0	213.6
583.2	212.8
583.4	211.2
583.6	208.7
583.8	206.8
584.0	204.3
584.2	203.4
584.4	204.5
584.6	204.8
584.8	203.7
585.0	201.7
585.2	200.4
585.4	199.1
585.6	197.5
585.8	196.1
586.0	194.2
586.2	192.4
586.4	192.4
586.6	192.1
586.8	190.5
587.0	189.2
587.2	188.1
587.4	187.8
587.6	188.1
587.8	187.5
588.0	185.4
588.2	183.1
588.4	181.3
588.6	179.5
588.8	179.0
589.0	178.4
589.2	178.0
589.4	177.5
589.6	176.3
589.8	173.9
590.0	173.3
590.2	173.1
590.4	173.5
590.6	172.6
590.8	171.3
591.0	169.3
591.2	168.0
591.4	166.7
591.6	166.4
591.8	165.7
592.0	164.9
592.2	162.7
592.4	161.7
592.6	160.9
592.8	160.6
593.0	160.8
593.2	160.3
593.4	158.8
593.6	158.0
593.8	156.5
594.0	155.0
594.2	153.2
594.4	152.2
594.6	151.0
594.8	150.0
595.0	148.7
595.2	148.4
595.4	147.8
595.6	147.7
595.8	147.2
596.0	146.7
596.2	146.1
596.4	144.6
596.6	143.0
596.8	141.2
597.0	139.9
597.2	139.4
597.4	140.0
597.6	139.3
597.8	138.3
598.0	137.2
598.2	137.3
598.4	136.8
598.6	135.7
598.8	134.7
599.0	133.1
599.2	131.5
599.4	130.7
599.6	129.2
599.8	128.1
600.0	128.4
600.2	129.3
600.4	128.9
600.6	128.1
600.8	127.5
601.0	126.1
601.2	125.2
601.4	123.9
601.6	121.9
601.8	121.1
602.0	121.8
602.2	121.3
602.4	121.7
602.6	119.5
602.8	117.7
603.0	116.6
603.2	116.9
603.4	117.1
603.6	116.8
603.8	115.3
604.0	114.3
604.2	113.4
604.4	113.3
604.6	113.6
604.8	112.7
605.0	111.7
605.2	110.9
605.4	109.9
605.6	109.3
605.8	109.0
606.0	108.2
606.2	107.1
606.4	106.2
606.6	105.8
606.8	105.8
607.0	105.5
607.2	104.9
607.4	103.8
607.6	102.7
607.8	102.0
608.0	101.0
608.2	100.3
608.4	100.5
608.6	100.2
608.8	99.97
609.0	98.87
609.2	97.57
609.4	97.04
609.6	97.06
609.8	96.14
610.0	95.58
610.2	94.00
610.4	92.78
610.6	92.75
610.8	91.84
611.0	90.78
611.2	91.23
611.4	90.99
611.6	90.39
611.8	89.96
612.0	88.05
612.2	86.91
612.4	86.83
612.6	86.61
612.8	86.90
613.0	87.25
613.2	86.64
613.4	86.51
613.6	85.87
613.8	84.83
614.0	84.42
614.2	83.81
614.4	83.22
614.6	82.71
614.8	82.31
615.0	81.10
615.2	79.56
615.4	78.07
615.6	77.24
615.8	76.77
616.0	77.86
616.2	78.04
616.4	77.84
616.6	77.08
616.8	75.87
617.0	75.16
617.2	75.44
617.4	75.09
617.6	75.17
617.8	74.82
618.0	74.72
618.2	75.19
618.4	74.39
618.6	73.10
618.8	71.83
619.0	70.40
619.2	70.10
619.4	69.81
619.6	69.07
619.8	68.80
620.0	68.95
620.2	69.05
620.4	68.53
620.6	67.27
620.8	65.95
621.0	64.81
621.2	64.91
621.4	65.33
621.6	65.39
621.8	65.17
622.0	65.09
622.2	64.30
622.4	63.95
622.6	63.28
622.8	63.11
623.0	62.95
623.2	62.88
623.4	62.21
623.6	61.40
623.8	60.33
624.0	60.34
624.2	60.42
624.4	60.22
624.6	60.17
624.8	59.61
625.0	58.63
625.2	59.01
625.4	59.37
625.6	59.08
625.8	58.79
626.0	57.95
626.2	56.45
626.4	55.62
626.6	54.87
626.8	54.18
627.0	54.63
627.2	55.00
627.4	55.08
627.6	54.78
627.8	54.30
628.0	54.06
628.2	53.49
628.4	52.84
628.6	52.29
628.8	51.73
629.0	51.58
629.2	51.32
629.4	50.15
629.6	49.51
629.8	49.18
630.0	49.07
630.2	49.29
630.4	49.36
630.6	48.86
630.8	48.57
631.0	48.49
631.2	48.60
631.4	48.99
631.6	48.46
631.8	47.59
632.0	46.94
632.2	46.65
632.4	46.73
632.6	46.88
632.8	45.93
633.0	45.29
633.2	44.91
633.4	44.99
633.6	44.81
633.8	44.65
634.0	44.30
634.2	43.56
634.4	43.12
634.6	42.82
634.8	42.48
635.0	42.37
635.2	42.59
635.4	42.68
635.6	42.52
635.8	41.77
636.0	41.46
636.2	40.69
636.4	40.64
636.6	40.63
636.8	40.53
637.0	40.25
637.2	40.21
637.4	39.65
637.6	38.96
637.8	38.39
638.0	38.50
638.2	38.86
638.4	38.90
638.6	38.20
638.8	37.34
639.0	36.50
639.2	36.35
639.4	36.20
639.6	35.99
639.8	35.66
640.0	35.82
640.2	35.77
640.4	35.71
640.6	35.08
640.8	34.94
641.0	34.60
641.2	34.67
641.4	34.76
641.6	33.95
641.8	33.32
642.0	33.05
642.2	32.26
642.4	32.05
642.6	32.02
642.8	32.10
643.0	32.31
643.2	32.80
643.4	32.73
643.6	31.99
643.8	31.81
644.0	31.87
644.2	31.48
644.4	31.55
644.6	30.81
644.8	29.47
645.0	29.19
645.2	29.20
645.4	29.56
645.6	29.81
645.8	29.62
646.0	29.39
646.2	29.27
646.4	28.92
646.6	28.76
646.8	28.40
647.0	27.89
647.2	28.43
647.4	28.23
647.6	28.16
647.8	27.73
648.0	27.44
648.2	26.61
648.4	26.84
648.6	26.21
648.8	25.92
649.0	25.88
649.2	26.10
649.4	26.13
649.6	26.32
649.8	26.27
650.0	25.90
650.2	25.90
650.4	25.81
650.6	25.13
650.8	24.76
651.0	24.51
651.2	24.53
651.4	24.51
651.6	24.84
651.8	24.50
652.0	24.38
652.2	23.93
652.4	23.54
652.6	23.19
652.8	22.89
653.0	23.15
653.2	23.44
653.4	23.28
653.6	23.04
653.8	22.71
654.0	22.12
654.2	22.41
654.4	22.45
654.6	22.15
654.8	21.96
655.0	21.72
655.2	21.62
655.4	21.88
655.6	21.60
655.8	21.32
656.0	20.62
656.2	20.73
656.4	20.88
656.6	20.82
656.8	20.77
657.0	20.70
657.2	20.03
657.4	19.96
657.6	19.70
657.8	19.48
658.0	19.81
658.2	19.96
658.4	19.97
658.6	19.42
658.8	19.08
659.0	18.80
659.2	18.59
659.4	18.46
659.6	18.29
659.8	18.25
660.0	18.68
660.2	18.76
660.4	18.37
660.6	17.94
660.8	17.42
661.0	17.15
661.2	17.40
661.4	17.59
661.6	17.39
661.8	17.47
662.0	17.24
662.2	16.92
662.4	16.83
662.6	16.59
662.8	16.63
663.0	16.89
663.2	16.53
663.4	16.51
663.6	16.13
663.8	15.84
664.0	15.89
664.2	15.71
664.4	15.38
664.6	15.50
664.8	15.64
665.0	16.24
665.2	16.31
665.4	15.77
665.6	15.34
665.8	15.07
666.0	14.97
666.2	15.28
666.4	15.51
666.6	15.24
666.8	14.96
667.0	14.81
667.2	14.57
667.4	14.55
667.6	14.66
667.8	14.37
668.0	14.06
668.2	13.87
668.4	13.77
668.6	13.91
668.8	13.98
669.0	13.98
669.2	14.10
669.4	13.96
669.6	13.68
669.8	13.46
670.0	13.04
670.2	12.97
670.4	13.16
670.6	13.29
670.8	13.25
671.0	13.48
671.2	13.26
671.4	13.02
671.6	12.84
671.8	12.61
672.0	12.35
672.2	12.50
672.4	12.49
672.6	12.20
672.8	12.22
673.0	12.09
673.2	12.09
673.4	11.85
673.6	11.52
673.8	11.50
674.0	11.48
674.2	11.43
674.4	11.64
674.6	11.50
674.8	11.32
675.0	11.47
675.2	11.40
675.4	11.24
675.6	11.05
675.8	10.98
676.0	10.78
676.2	10.74
676.4	10.73
676.6	10.46
676.8	10.33
677.0	10.31
677.2	10.32
677.4	10.46
677.6	10.46
677.8	10.13
678.0	9.961
678.2	10.01
678.4	10.20
678.6	10.26
678.8	10.27
679.0	9.853
679.2	9.677
679.4	9.702
679.6	9.808
679.8	10.06
680.0	10.50

