Sample:	'20211010A(EM)
File name:	B-CDS 100uM.FDS
Run date:	'09:06:09, 06/08/2023
Operator:	Administrator
Comment:	'

Instrument
Model:	F-4700 FL Spectrophotometer
Serial number:	2019-001
ROM Version:	5J24010 00

Instrument parameters
Measurement type:	Wavelength scan
Scan mode:	Emission
Data mode:	Fluorescence
EX WL:	350.0 nm
EM  Start WL:	370.0 nm
EM  End WL:	680.0 nm
Scan speed:	1200 nm/min
Delay:	0.0 s
EX Slit:	10.0 nm
EM Slit:	10.0 nm
PMT Voltage:	550 V
Response:	0.002 s
Corrected spectra:	Off
Shutter control:	On

Processing performed
Savitsky-Golay smoothed
Smoothing order:	3
Number of points:	7
Number of times:	1

Peak integration
Integration method:	Rectangular
Sensitivity:	1
Threshold:	1.000

Peaks
No.	Start(nm)	Apex(nm)	End(nm)	Height(Data)	Valley(nm)	Valley(Data)
1	370.0	379.2	380.0	10.92	380.0	9.066
2	380.0	484.0	485.8	6353	485.8	6311
3	485.8	486.8	653.8	6365	653.8	90.13
4	653.8	654.4	662.2	93.00	662.2	69.00
5	662.2	662.8	664.2	71.68	664.2	65.45
6	664.2	665.0	674.0	66.92	674.0	46.30
7	674.0	674.6	678.2	48.91	678.2	40.66
8	678.2	679.0	680.0	42.16	680.0	37.61

Data points
nm	Data
370.0	7.652
370.2	7.658
370.4	7.685
370.6	7.801
370.8	8.438
371.0	8.524
371.2	8.420
371.4	8.145
371.6	8.141
371.8	8.108
372.0	8.403
372.2	8.065
372.4	8.038
372.6	8.218
372.8	8.546
373.0	8.795
373.2	8.862
373.4	8.748
373.6	8.692
373.8	8.894
374.0	8.841
374.2	8.619
374.4	8.482
374.6	8.482
374.8	8.372
375.0	8.598
375.2	8.823
375.4	9.197
375.6	9.299
375.8	8.901
376.0	9.085
376.2	9.272
376.4	9.527
376.6	10.08
376.8	10.26
377.0	10.33
377.2	10.39
377.4	10.33
377.6	10.38
377.8	10.31
378.0	10.14
378.2	9.996
378.4	9.515
378.6	9.464
378.8	9.572
379.0	10.22
379.2	10.92
379.4	10.46
379.6	10.04
379.8	9.329
380.0	9.066
380.2	9.210
380.4	10.12
380.6	10.38
380.8	11.48
381.0	11.73
381.2	11.76
381.4	11.48
381.6	11.51
381.8	11.39
382.0	11.53
382.2	11.76
382.4	11.74
382.6	11.44
382.8	11.84
383.0	12.75
383.2	12.83
383.4	13.73
383.6	14.14
383.8	13.81
384.0	13.61
384.2	13.62
384.4	13.23
384.6	13.81
384.8	14.38
385.0	14.94
385.2	15.36
385.4	15.71
385.6	16.19
385.8	16.73
386.0	16.88
386.2	16.55
386.4	17.10
386.6	17.28
386.8	17.68
387.0	18.23
387.2	17.93
387.4	18.33
387.6	19.21
387.8	19.54
388.0	20.81
388.2	21.30
388.4	21.32
388.6	21.75
388.8	22.79
389.0	22.84
389.2	23.07
389.4	22.82
389.6	23.56
389.8	24.02
390.0	25.35
390.2	25.78
390.4	25.34
390.6	25.56
390.8	27.02
391.0	28.17
391.2	29.43
391.4	30.82
391.6	31.39
391.8	31.78
392.0	32.26
392.2	31.99
392.4	32.46
392.6	33.43
392.8	35.04
393.0	35.81
393.2	36.94
393.4	38.05
393.6	39.64
393.8	40.21
394.0	41.80
394.2	42.40
394.4	43.35
394.6	44.36
394.8	46.64
395.0	47.84
395.2	49.48
395.4	50.56
395.6	52.64
395.8	55.28
396.0	58.34
396.2	60.48
396.4	61.25
396.6	62.07
396.8	64.27
397.0	66.37
397.2	68.30
397.4	70.13
397.6	71.57
397.8	74.00
398.0	76.29
398.2	78.03
398.4	80.38
398.6	82.98
398.8	85.06
399.0	89.10
399.2	93.00
399.4	96.40
399.6	99.70
399.8	102.9
400.0	103.8
400.2	108.1
400.4	111.7
400.6	113.9
400.8	117.2
401.0	122.5
401.2	126.0
401.4	132.3
401.6	138.4
401.8	140.8
402.0	142.9
402.2	147.2
402.4	149.8
402.6	154.0
402.8	161.6
403.0	165.2
403.2	169.0
403.4	175.0
403.6	180.6
403.8	187.3
404.0	195.6
404.2	201.1
404.4	206.1
404.6	210.8
404.8	218.0
405.0	225.7
405.2	232.8
405.4	238.3
405.6	241.9
405.8	246.7
406.0	255.5
406.2	265.2
406.4	274.8
406.6	283.4
406.8	288.8
407.0	293.5
407.2	300.9
407.4	309.5
407.6	318.1
407.8	325.5
408.0	333.3
408.2	341.3
408.4	352.2
408.6	364.8
408.8	377.3
409.0	387.1
409.2	398.2
409.4	408.6
409.6	414.0
409.8	423.7
410.0	436.9
410.2	451.4
410.4	465.1
410.6	481.9
410.8	489.2
411.0	497.3
411.2	508.1
411.4	515.9
411.6	523.5
411.8	537.4
412.0	546.4
412.2	557.9
412.4	574.7
412.6	594.1
412.8	607.5
413.0	622.2
413.2	632.7
413.4	644.7
413.6	660.0
413.8	680.9
414.0	695.9
414.2	712.0
414.4	726.7
414.6	742.5
414.8	756.1
415.0	771.5
415.2	791.6
415.4	812.5
415.6	833.4
415.8	851.9
416.0	862.8
416.2	875.6
416.4	895.9
416.6	914.3
416.8	932.9
417.0	949.4
417.2	964.5
417.4	979.6
417.6	999.5
417.8	1017
418.0	1039
418.2	1063
418.4	1083
418.6	1098
418.8	1111
419.0	1126
419.2	1151
419.4	1176
419.6	1195
419.8	1217
420.0	1244
420.2	1264
420.4	1286
420.6	1302
420.8	1319
421.0	1335
421.2	1362
421.4	1387
421.6	1411
421.8	1437
422.0	1458
422.2	1468
422.4	1478
422.6	1496
422.8	1519
423.0	1548
423.2	1579
423.4	1601
423.6	1628
423.8	1661
424.0	1680
424.2	1693
424.4	1711
424.6	1719
424.8	1742
425.0	1778
425.2	1802
425.4	1828
425.6	1853
425.8	1873
426.0	1894
426.2	1925
426.4	1943
426.6	1969
426.8	1992
427.0	2011
427.2	2030
427.4	2059
427.6	2077
427.8	2097
428.0	2130
428.2	2149
428.4	2164
428.6	2188
428.8	2212
429.0	2234
429.2	2269
429.4	2290
429.6	2316
429.8	2329
430.0	2358
430.2	2385
430.4	2407
430.6	2434
430.8	2463
431.0	2487
431.2	2519
431.4	2542
431.6	2560
431.8	2582
432.0	2599
432.2	2629
432.4	2663
432.6	2686
432.8	2709
433.0	2723
433.2	2739
433.4	2752
433.6	2773
433.8	2786
434.0	2810
434.2	2841
434.4	2881
434.6	2906
434.8	2928
435.0	2945
435.2	2964
435.4	2974
435.6	2993
435.8	3014
436.0	3036
436.2	3064
436.4	3100
436.6	3118
436.8	3148
437.0	3171
437.2	3186
437.4	3196
437.6	3220
437.8	3238
438.0	3259
438.2	3274
438.4	3296
438.6	3319
438.8	3343
439.0	3368
439.2	3387
439.4	3401
439.6	3415
439.8	3440
440.0	3455
440.2	3485
440.4	3521
440.6	3548
440.8	3554
441.0	3576
441.2	3582
441.4	3605
441.6	3624
441.8	3659
442.0	3674
442.2	3701
442.4	3716
442.6	3732
442.8	3743
443.0	3772
443.2	3794
443.4	3812
443.6	3825
443.8	3831
444.0	3853
444.2	3863
444.4	3882
444.6	3900
444.8	3922
445.0	3942
445.2	3963
445.4	3972
445.6	3989
445.8	4011
446.0	4040
446.2	4060
446.4	4070
446.6	4083
446.8	4109
447.0	4140
447.2	4168
447.4	4192
447.6	4208
447.8	4219
448.0	4229
448.2	4248
448.4	4256
448.6	4269
448.8	4285
449.0	4295
449.2	4305
449.4	4333
449.6	4352
449.8	4390
450.0	4421
450.2	4437
450.4	4451
450.6	4465
450.8	4464
451.0	4498
451.2	4520
451.4	4527
451.6	4544
451.8	4546
452.0	4560
452.2	4600
452.4	4626
452.6	4639
452.8	4662
453.0	4670
453.2	4695
453.4	4720
453.6	4735
453.8	4740
454.0	4755
454.2	4765
454.4	4796
454.6	4810
454.8	4820
455.0	4832
455.2	4851
455.4	4867
455.6	4903
455.8	4911
456.0	4917
456.2	4947
456.4	4969
456.6	4998
456.8	5022
457.0	5040
457.2	5051
457.4	5069
457.6	5066
457.8	5068
458.0	5060
458.2	5091
458.4	5120
458.6	5151
458.8	5177
459.0	5192
459.2	5205
459.4	5230
459.6	5242
459.8	5240
460.0	5253
460.2	5272
460.4	5306
460.6	5322
460.8	5336
461.0	5344
461.2	5346
461.4	5365
461.6	5393
461.8	5414
462.0	5436
462.2	5464
462.4	5477
462.6	5510
462.8	5529
463.0	5558
463.2	5569
463.4	5570
463.6	5588
463.8	5597
464.0	5592
464.2	5603
464.4	5600
464.6	5612
464.8	5654
465.0	5675
465.2	5693
465.4	5701
465.6	5694
465.8	5720
466.0	5760
466.2	5780
466.4	5786
466.6	5774
466.8	5759
467.0	5779
467.2	5797
467.4	5818
467.6	5840
467.8	5843
468.0	5850
468.2	5866
468.4	5878
468.6	5909
468.8	5939
469.0	5942
469.2	5966
469.4	5970
469.6	5977
469.8	5986
470.0	5987
470.2	5981
470.4	6014
470.6	6019
470.8	6037
471.0	6049
471.2	6046
471.4	6045
471.6	6062
471.8	6062
472.0	6069
472.2	6061
472.4	6051
472.6	6063
472.8	6091
473.0	6129
473.2	6148
473.4	6142
473.6	6133
473.8	6137
474.0	6133
474.2	6151
474.4	6160
474.6	6172
474.8	6185
475.0	6197
475.2	6201
475.4	6218
475.6	6222
475.8	6233
476.0	6244
476.2	6249
476.4	6246
476.6	6256
476.8	6260
477.0	6256
477.2	6257
477.4	6242
477.6	6229
477.8	6257
478.0	6282
478.2	6288
478.4	6295
478.6	6285
478.8	6292
479.0	6312
479.2	6315
479.4	6313
479.6	6310
479.8	6311
480.0	6315
480.2	6322
480.4	6327
480.6	6321
480.8	6315
481.0	6331
481.2	6330
481.4	6325
481.6	6331
481.8	6323
482.0	6318
482.2	6336
482.4	6331
482.6	6320
482.8	6333
483.0	6343
483.2	6341
483.4	6350
483.6	6353
483.8	6349
484.0	6353
484.2	6349
484.4	6349
484.6	6336
484.8	6336
485.0	6332
485.2	6335
485.4	6331
485.6	6340
485.8	6311
486.0	6314
486.2	6320
486.4	6343
486.6	6348
486.8	6365
487.0	6352
487.2	6355
487.4	6347
487.6	6350
487.8	6337
488.0	6331
488.2	6320
488.4	6319
488.6	6314
488.8	6314
489.0	6306
489.2	6290
489.4	6280
489.6	6282
489.8	6270
490.0	6277
490.2	6267
490.4	6271
490.6	6268
490.8	6264
491.0	6239
491.2	6231
491.4	6220
491.6	6223
491.8	6242
492.0	6247
492.2	6234
492.4	6203
492.6	6164
492.8	6152
493.0	6165
493.2	6185
493.4	6197
493.6	6191
493.8	6166
494.0	6145
494.2	6112
494.4	6103
494.6	6093
494.8	6095
495.0	6104
495.2	6090
495.4	6060
495.6	6049
495.8	6033
496.0	6021
496.2	6046
496.4	6041
496.6	6023
496.8	6010
497.0	5981
497.2	5955
497.4	5966
497.6	5958
497.8	5944
498.0	5915
498.2	5896
498.4	5886
498.6	5888
498.8	5871
499.0	5857
499.2	5833
499.4	5828
499.6	5827
499.8	5818
500.0	5789
500.2	5784
500.4	5770
500.6	5742
500.8	5738
501.0	5734
501.2	5726
501.4	5727
501.6	5718
501.8	5675
502.0	5658
502.2	5642
502.4	5633
502.6	5622
502.8	5608
503.0	5576
503.2	5554
503.4	5535
503.6	5536
503.8	5541
504.0	5530
504.2	5513
504.4	5479
504.6	5451
504.8	5431
505.0	5420
505.2	5412
505.4	5399
505.6	5386
505.8	5359
506.0	5339
506.2	5320
506.4	5320
506.6	5312
506.8	5309
507.0	5285
507.2	5275
507.4	5249
507.6	5231
507.8	5220
508.0	5203
508.2	5185
508.4	5167
508.6	5136
508.8	5108
509.0	5098
509.2	5090
509.4	5080
509.6	5072
509.8	5062
510.0	5047
510.2	5021
510.4	5006
510.6	4983
510.8	4960
511.0	4945
511.2	4927
511.4	4913
511.6	4904
511.8	4887
512.0	4858
512.2	4833
512.4	4808
512.6	4805
512.8	4795
513.0	4786
513.2	4769
513.4	4762
513.6	4742
513.8	4729
514.0	4706
514.2	4692
514.4	4671
514.6	4666
514.8	4640
515.0	4623
515.2	4596
515.4	4578
515.6	4552
515.8	4540
516.0	4528
516.2	4515
516.4	4502
516.6	4488
516.8	4483
517.0	4482
517.2	4474
517.4	4442
517.6	4407
517.8	4376
518.0	4366
518.2	4366
518.4	4363
518.6	4361
518.8	4341
519.0	4313
519.2	4284
519.4	4263
519.6	4239
519.8	4231
520.0	4212
520.2	4200
520.4	4185
520.6	4176
520.8	4162
521.0	4153
521.2	4141
521.4	4130
521.6	4112
521.8	4089
522.0	4060
522.2	4036
522.4	4029
522.6	4019
522.8	4007
523.0	3983
523.2	3965
523.4	3948
523.6	3949
523.8	3949
524.0	3937
524.2	3918
524.4	3905
524.6	3882
524.8	3860
525.0	3847
525.2	3835
525.4	3816
525.6	3798
525.8	3776
526.0	3758
526.2	3753
526.4	3738
526.6	3734
526.8	3720
527.0	3706
527.2	3690
527.4	3677
527.6	3650
527.8	3641
528.0	3624
528.2	3615
528.4	3602
528.6	3597
528.8	3585
529.0	3557
529.2	3541
529.4	3523
529.6	3517
529.8	3510
530.0	3502
530.2	3477
530.4	3457
530.6	3439
530.8	3431
531.0	3411
531.2	3409
531.4	3390
531.6	3373
531.8	3363
532.0	3361
532.2	3350
532.4	3352
532.6	3335
532.8	3311
533.0	3303
533.2	3298
533.4	3287
533.6	3273
533.8	3253
534.0	3218
534.2	3194
534.4	3182
534.6	3173
534.8	3172
535.0	3175
535.2	3160
535.4	3134
535.6	3121
535.8	3101
536.0	3092
536.2	3077
536.4	3062
536.6	3037
536.8	3025
537.0	3012
537.2	2990
537.4	2973
537.6	2967
537.8	2949
538.0	2944
538.2	2934
538.4	2916
538.6	2900
538.8	2893
539.0	2882
539.2	2881
539.4	2869
539.6	2860
539.8	2849
540.0	2834
540.2	2821
540.4	2807
540.6	2783
540.8	2766
541.0	2759
541.2	2743
541.4	2735
541.6	2718
541.8	2704
542.0	2693
542.2	2684
542.4	2670
542.6	2659
542.8	2640
543.0	2623
543.2	2607
543.4	2601
543.6	2593
543.8	2592
544.0	2586
544.2	2568
544.4	2553
544.6	2536
544.8	2515
545.0	2510
545.2	2495
545.4	2482
545.6	2484
545.8	2469
546.0	2451
546.2	2436
546.4	2418
546.6	2411
546.8	2415
547.0	2405
547.2	2382
547.4	2355
547.6	2340
547.8	2325
548.0	2323
548.2	2309
548.4	2289
548.6	2268
548.8	2261
549.0	2260
549.2	2262
549.4	2252
549.6	2240
549.8	2224
550.0	2209
550.2	2203
550.4	2191
550.6	2169
550.8	2150
551.0	2139
551.2	2128
551.4	2118
551.6	2104
551.8	2099
552.0	2094
552.2	2094
552.4	2086
552.6	2075
552.8	2053
553.0	2042
553.2	2029
553.4	2023
553.6	2011
553.8	2004
554.0	1993
554.2	1971
554.4	1953
554.6	1941
554.8	1936
555.0	1934
555.2	1933
555.4	1917
555.6	1906
555.8	1893
556.0	1877
556.2	1866
556.4	1851
556.6	1835
556.8	1829
557.0	1819
557.2	1810
557.4	1801
557.6	1792
557.8	1781
558.0	1770
558.2	1753
558.4	1742
558.6	1735
558.8	1737
559.0	1731
559.2	1722
559.4	1709
559.6	1700
559.8	1695
560.0	1691
560.2	1680
560.4	1668
560.6	1663
560.8	1651
561.0	1641
561.2	1630
561.4	1613
561.6	1602
561.8	1601
562.0	1589
562.2	1581
562.4	1576
562.6	1562
562.8	1550
563.0	1542
563.2	1533
563.4	1527
563.6	1523
563.8	1514
564.0	1507
564.2	1498
564.4	1495
564.6	1485
564.8	1479
565.0	1472
565.2	1466
565.4	1449
565.6	1441
565.8	1431
566.0	1424
566.2	1417
566.4	1412
566.6	1401
566.8	1396
567.0	1385
567.2	1380
567.4	1371
567.6	1362
567.8	1358
568.0	1354
568.2	1340
568.4	1332
568.6	1323
568.8	1314
569.0	1305
569.2	1306
569.4	1302
569.6	1298
569.8	1294
570.0	1286
570.2	1273
570.4	1263
570.6	1252
570.8	1244
571.0	1237
571.2	1232
571.4	1231
571.6	1226
571.8	1221
572.0	1213
572.2	1203
572.4	1198
572.6	1193
572.8	1185
573.0	1179
573.2	1174
573.4	1169
573.6	1169
573.8	1162
574.0	1155
574.2	1149
574.4	1136
574.6	1130
574.8	1124
575.0	1114
575.2	1107
575.4	1100
575.6	1092
575.8	1092
576.0	1086
576.2	1073
576.4	1066
576.6	1061
576.8	1060
577.0	1057
577.2	1049
577.4	1037
577.6	1039
577.8	1035
578.0	1024
578.2	1016
578.4	1013
578.6	1010
578.8	1013
579.0	1009
579.2	993.2
579.4	984.9
579.6	981.9
579.8	973.9
580.0	966.8
580.2	965.6
580.4	961.0
580.6	957.0
580.8	958.7
581.0	948.5
581.2	935.0
581.4	927.3
581.6	920.0
581.8	914.5
582.0	918.6
582.2	915.0
582.4	907.2
582.6	900.7
582.8	892.7
583.0	888.4
583.2	884.5
583.4	878.8
583.6	871.2
583.8	871.6
584.0	865.0
584.2	864.9
584.4	858.5
584.6	854.7
584.8	847.5
585.0	846.6
585.2	837.6
585.4	834.9
585.6	830.4
585.8	826.0
586.0	819.3
586.2	820.9
586.4	817.2
586.6	813.0
586.8	807.7
587.0	800.4
587.2	788.7
587.4	784.8
587.6	774.3
587.8	768.6
588.0	767.9
588.2	771.8
588.4	769.4
588.6	768.4
588.8	761.3
589.0	751.5
589.2	749.1
589.4	742.9
589.6	737.5
589.8	734.4
590.0	733.6
590.2	727.2
590.4	725.6
590.6	718.6
590.8	714.3
591.0	707.1
591.2	697.9
591.4	689.7
591.6	688.2
591.8	686.8
592.0	687.3
592.2	685.4
592.4	680.1
592.6	677.6
592.8	675.5
593.0	672.8
593.2	669.0
593.4	664.2
593.6	658.6
593.8	656.4
594.0	652.0
594.2	652.9
594.4	651.6
594.6	642.9
594.8	635.0
595.0	629.5
595.2	621.6
595.4	618.3
595.6	617.2
595.8	615.6
596.0	619.0
596.2	614.5
596.4	604.8
596.6	595.8
596.8	590.3
597.0	588.2
597.2	587.7
597.4	586.7
597.6	584.8
597.8	583.8
598.0	582.6
598.2	577.8
598.4	572.6
598.6	572.3
598.8	568.7
599.0	563.7
599.2	557.6
599.4	551.2
599.6	544.9
599.8	544.4
600.0	539.7
600.2	537.4
600.4	536.0
600.6	534.6
600.8	529.4
601.0	527.0
601.2	520.8
601.4	517.4
601.6	516.2
601.8	517.5
602.0	517.8
602.2	511.4
602.4	505.1
602.6	495.9
602.8	490.5
603.0	492.2
603.2	493.7
603.4	490.3
603.6	489.4
603.8	484.2
604.0	478.7
604.2	473.7
604.4	468.8
604.6	466.9
604.8	465.0
605.0	463.5
605.2	458.5
605.4	451.4
605.6	450.7
605.8	450.4
606.0	446.6
606.2	443.6
606.4	437.2
606.6	434.2
606.8	437.1
607.0	436.3
607.2	436.5
607.4	430.1
607.6	424.8
607.8	424.0
608.0	420.8
608.2	414.6
608.4	413.1
608.6	410.5
608.8	411.6
609.0	413.6
609.2	409.7
609.4	405.8
609.6	397.8
609.8	397.5
610.0	395.5
610.2	396.0
610.4	392.4
610.6	392.0
610.8	385.9
611.0	380.8
611.2	373.8
611.4	370.4
611.6	367.3
611.8	368.5
612.0	371.6
612.2	370.0
612.4	368.6
612.6	367.1
612.8	367.2
613.0	365.6
613.2	364.1
613.4	358.8
613.6	350.8
613.8	348.3
614.0	345.8
614.2	345.0
614.4	347.9
614.6	346.7
614.8	343.3
615.0	341.7
615.2	339.2
615.4	334.7
615.6	331.3
615.8	327.5
616.0	323.5
616.2	322.7
616.4	325.0
616.6	324.2
616.8	325.4
617.0	327.8
617.2	322.2
617.4	319.5
617.6	315.1
617.8	308.3
618.0	306.1
618.2	306.7
618.4	302.6
618.6	300.9
618.8	299.8
619.0	299.2
619.2	301.2
619.4	300.7
619.6	297.7
619.8	292.2
620.0	287.6
620.2	286.3
620.4	286.6
620.6	284.5
620.8	283.8
621.0	280.1
621.2	275.5
621.4	272.7
621.6	272.7
621.8	274.5
622.0	276.7
622.2	274.5
622.4	270.1
622.6	265.8
622.8	264.5
623.0	263.0
623.2	263.0
623.4	260.0
623.6	258.7
623.8	255.7
624.0	255.3
624.2	254.3
624.4	252.9
624.6	250.0
624.8	248.4
625.0	247.2
625.2	246.6
625.4	246.4
625.6	244.3
625.8	242.2
626.0	239.0
626.2	234.6
626.4	233.3
626.6	233.0
626.8	233.2
627.0	233.7
627.2	231.9
627.4	225.6
627.6	223.4
627.8	219.8
628.0	219.1
628.2	220.9
628.4	223.9
628.6	224.0
628.8	222.4
629.0	221.0
629.2	218.4
629.4	217.0
629.6	215.5
629.8	214.7
630.0	212.4
630.2	213.2
630.4	209.6
630.6	206.4
630.8	202.3
631.0	201.5
631.2	200.9
631.4	200.4
631.6	197.6
631.8	194.3
632.0	191.7
632.2	193.7
632.4	194.2
632.6	195.1
632.8	194.9
633.0	195.0
633.2	192.9
633.4	191.6
633.6	188.1
633.8	186.5
634.0	185.6
634.2	185.8
634.4	184.2
634.6	179.7
634.8	177.7
635.0	178.3
635.2	177.8
635.4	176.4
635.6	176.7
635.8	174.0
636.0	173.4
636.2	174.7
636.4	172.3
636.6	170.7
636.8	168.9
637.0	165.3
637.2	162.8
637.4	160.8
637.6	160.4
637.8	160.6
638.0	159.2
638.2	160.4
638.4	160.6
638.6	159.3
638.8	159.9
639.0	156.2
639.2	151.9
639.4	149.9
639.6	147.2
639.8	147.6
640.0	149.2
640.2	149.1
640.4	151.0
640.6	151.5
640.8	148.6
641.0	147.0
641.2	144.0
641.4	142.3
641.6	142.6
641.8	143.8
642.0	141.9
642.2	140.1
642.4	136.4
642.6	135.1
642.8	134.6
643.0	135.4
643.2	135.9
643.4	135.3
643.6	134.0
643.8	133.3
644.0	130.9
644.2	128.3
644.4	128.6
644.6	128.4
644.8	127.8
645.0	126.5
645.2	124.4
645.4	122.7
645.6	122.5
645.8	122.5
646.0	123.6
646.2	124.3
646.4	124.4
646.6	123.7
646.8	121.6
647.0	117.9
647.2	117.1
647.4	115.2
647.6	113.6
647.8	114.6
648.0	116.2
648.2	115.2
648.4	114.4
648.6	113.0
648.8	112.3
649.0	112.4
649.2	111.8
649.4	109.9
649.6	109.3
649.8	108.6
650.0	108.0
650.2	106.3
650.4	103.0
650.6	101.5
650.8	101.8
651.0	102.9
651.2	103.1
651.4	102.2
651.6	100.3
651.8	99.72
652.0	99.92
652.2	100.1
652.4	99.18
652.6	98.94
652.8	97.14
653.0	95.28
653.2	94.61
653.4	92.82
653.6	91.16
653.8	90.13
654.0	91.20
654.2	92.27
654.4	93.00
654.6	92.35
654.8	92.19
655.0	91.04
655.2	91.34
655.4	90.24
655.6	88.30
655.8	86.41
656.0	87.61
656.2	89.28
656.4	89.51
656.6	88.95
656.8	87.13
657.0	86.14
657.2	85.04
657.4	85.22
657.6	84.53
657.8	82.99
658.0	82.42
658.2	82.98
658.4	81.62
658.6	81.58
658.8	81.56
659.0	80.67
659.2	79.92
659.4	78.99
659.6	78.58
659.8	77.46
660.0	78.33
660.2	78.24
660.4	76.35
660.6	75.97
660.8	75.54
661.0	74.19
661.2	75.11
661.4	74.58
661.6	73.08
661.8	72.35
662.0	69.31
662.2	69.00
662.4	70.29
662.6	71.27
662.8	71.68
663.0	70.84
663.2	70.62
663.4	71.23
663.6	71.13
663.8	69.83
664.0	67.61
664.2	65.45
664.4	65.54
664.6	66.14
664.8	66.64
665.0	66.92
665.2	65.97
665.4	65.76
665.6	65.66
665.8	66.36
666.0	66.60
666.2	66.48
666.4	65.50
666.6	64.63
666.8	62.70
667.0	61.61
667.2	60.23
667.4	59.11
667.6	59.70
667.8	59.13
668.0	58.25
668.2	58.78
668.4	57.03
668.6	56.54
668.8	56.74
669.0	55.28
669.2	55.37
669.4	56.07
669.6	54.60
669.8	54.65
670.0	54.95
670.2	54.45
670.4	54.99
670.6	54.12
670.8	53.41
671.0	53.01
671.2	53.53
671.4	53.40
671.6	52.95
671.8	52.37
672.0	52.23
672.2	52.12
672.4	51.76
672.6	50.07
672.8	47.87
673.0	47.60
673.2	47.21
673.4	48.27
673.6	47.89
673.8	47.23
674.0	46.30
674.2	47.07
674.4	47.49
674.6	48.91
674.8	48.36
675.0	47.58
675.2	47.95
675.4	47.69
675.6	46.91
675.8	46.36
676.0	44.40
676.2	43.55
676.4	44.85
676.6	45.45
676.8	45.51
677.0	45.13
677.2	43.05
677.4	41.87
677.6	40.93
677.8	41.04
678.0	40.93
678.2	40.66
678.4	41.02
678.6	41.22
678.8	41.25
679.0	42.16
679.2	41.68
679.4	40.32
679.6	39.23
679.8	38.28
680.0	37.61

