Sample:	'20211010A(EM)
File name:	B-CDS 3 300uM.FDS
Run date:	'09:18:23, 06/08/2023
Operator:	Administrator
Comment:	'

Instrument
Model:	F-4700 FL Spectrophotometer
Serial number:	2019-001
ROM Version:	5J24010 00

Instrument parameters
Measurement type:	Wavelength scan
Scan mode:	Emission
Data mode:	Fluorescence
EX WL:	350.0 nm
EM  Start WL:	370.0 nm
EM  End WL:	680.0 nm
Scan speed:	1200 nm/min
Delay:	0.0 s
EX Slit:	10.0 nm
EM Slit:	10.0 nm
PMT Voltage:	550 V
Response:	0.002 s
Corrected spectra:	Off
Shutter control:	On

Processing performed
Savitsky-Golay smoothed
Smoothing order:	3
Number of points:	7
Number of times:	1

Peak integration
Integration method:	Rectangular
Sensitivity:	1
Threshold:	1.000

Peaks
No.	Start(nm)	Apex(nm)	End(nm)	Height(Data)	Valley(nm)	Valley(Data)
1	370.0	371.2	372.2	12.60	372.2	10.87
2	372.2	375.2	376.0	12.88	376.0	11.66
3	376.0	377.0	378.8	14.52	378.8	13.06
4	378.8	477.4	478.2	8582	478.2	8522
5	478.2	479.8	480.8	8610	480.8	8527
6	480.8	483.6	484.4	8595	484.4	8522
7	484.4	485.2	637.0	8582	637.0	213.3
8	637.0	637.6	680.0	219.4	680.0	52.84

Data points
nm	Data
370.0	10.68
370.2	10.56
370.4	10.74
370.6	11.12
370.8	11.86
371.0	11.81
371.2	12.60
371.4	12.41
371.6	12.17
371.8	11.77
372.0	11.50
372.2	10.87
372.4	10.98
372.6	11.04
372.8	10.97
373.0	11.18
373.2	11.46
373.4	11.83
373.6	12.47
373.8	12.56
374.0	12.53
374.2	12.09
374.4	11.96
374.6	12.13
374.8	12.33
375.0	12.37
375.2	12.88
375.4	12.77
375.6	12.81
375.8	12.44
376.0	11.66
376.2	11.82
376.4	12.66
376.6	13.15
376.8	14.16
377.0	14.52
377.2	13.84
377.4	14.24
377.6	14.04
377.8	13.91
378.0	14.29
378.2	14.33
378.4	13.73
378.6	13.61
378.8	13.06
379.0	13.13
379.2	13.55
379.4	14.87
379.6	15.34
379.8	15.35
380.0	15.57
380.2	15.56
380.4	16.20
380.6	16.86
380.8	16.62
381.0	16.21
381.2	15.67
381.4	15.60
381.6	16.37
381.8	16.45
382.0	17.24
382.2	17.58
382.4	17.21
382.6	17.79
382.8	18.67
383.0	19.51
383.2	20.45
383.4	19.66
383.6	18.73
383.8	18.71
384.0	19.40
384.2	20.71
384.4	21.45
384.6	20.94
384.8	21.17
385.0	21.76
385.2	22.71
385.4	23.49
385.6	23.94
385.8	24.36
386.0	24.96
386.2	25.20
386.4	25.53
386.6	25.22
386.8	25.75
387.0	26.67
387.2	27.04
387.4	26.93
387.6	27.36
387.8	28.07
388.0	29.72
388.2	31.38
388.4	31.58
388.6	33.15
388.8	33.64
389.0	35.56
389.2	36.96
389.4	37.68
389.6	37.94
389.8	40.44
390.0	40.48
390.2	40.74
390.4	41.07
390.6	41.82
390.8	43.61
391.0	46.79
391.2	48.45
391.4	49.27
391.6	50.25
391.8	51.80
392.0	52.63
392.2	53.87
392.4	54.98
392.6	55.85
392.8	57.35
393.0	60.01
393.2	62.16
393.4	65.96
393.6	69.39
393.8	71.98
394.0	75.11
394.2	76.15
394.4	76.97
394.6	78.48
394.8	78.64
395.0	80.07
395.2	84.17
395.4	88.88
395.6	94.18
395.8	96.70
396.0	99.57
396.2	99.67
396.4	102.0
396.6	106.4
396.8	110.2
397.0	113.9
397.2	118.6
397.4	123.5
397.6	127.2
397.8	131.8
398.0	136.0
398.2	141.9
398.4	145.9
398.6	152.1
398.8	156.0
399.0	160.9
399.2	165.7
399.4	174.3
399.6	178.7
399.8	182.3
400.0	186.9
400.2	190.8
400.4	197.2
400.6	206.8
400.8	214.2
401.0	219.3
401.2	227.3
401.4	232.6
401.6	241.9
401.8	252.3
402.0	261.6
402.2	266.8
402.4	274.5
402.6	281.2
402.8	288.7
403.0	300.1
403.2	309.4
403.4	320.1
403.6	328.1
403.8	339.0
404.0	346.9
404.2	357.3
404.4	368.5
404.6	382.6
404.8	392.9
405.0	407.8
405.2	417.7
405.4	430.1
405.6	441.0
405.8	454.6
406.0	468.6
406.2	484.5
406.4	496.4
406.6	512.6
406.8	526.0
407.0	538.1
407.2	550.7
407.4	562.3
407.6	575.9
407.8	592.3
408.0	608.2
408.2	616.7
408.4	630.5
408.6	645.1
408.8	669.7
409.0	696.4
409.2	719.3
409.4	736.3
409.6	751.3
409.8	769.1
410.0	789.0
410.2	808.4
410.4	830.3
410.6	852.9
410.8	872.0
411.0	898.7
411.2	918.3
411.4	941.0
411.6	959.8
411.8	975.5
412.0	990.3
412.2	1012
412.4	1035
412.6	1062
412.8	1084
413.0	1103
413.2	1120
413.4	1146
413.6	1175
413.8	1202
414.0	1230
414.2	1253
414.4	1275
414.6	1303
414.8	1332
415.0	1353
415.2	1382
415.4	1410
415.6	1440
415.8	1471
416.0	1506
416.2	1529
416.4	1562
416.6	1593
416.8	1618
417.0	1643
417.2	1670
417.4	1696
417.6	1723
417.8	1753
418.0	1783
418.2	1806
418.4	1827
418.6	1860
418.8	1883
419.0	1916
419.2	1950
419.4	1977
419.6	2010
419.8	2057
420.0	2090
420.2	2128
420.4	2158
420.6	2192
420.8	2229
421.0	2272
421.2	2301
421.4	2332
421.6	2356
421.8	2391
422.0	2422
422.2	2468
422.4	2516
422.6	2561
422.8	2584
423.0	2614
423.2	2639
423.4	2670
423.6	2698
423.8	2732
424.0	2756
424.2	2797
424.4	2843
424.6	2882
424.8	2915
425.0	2952
425.2	2995
425.4	3033
425.6	3072
425.8	3107
426.0	3140
426.2	3167
426.4	3195
426.6	3216
426.8	3246
427.0	3280
427.2	3321
427.4	3359
427.6	3388
427.8	3413
428.0	3447
428.2	3485
428.4	3527
428.6	3571
428.8	3603
429.0	3637
429.2	3673
429.4	3716
429.6	3747
429.8	3777
430.0	3797
430.2	3826
430.4	3864
430.6	3910
430.8	3957
431.0	4000
431.2	4033
431.4	4064
431.6	4094
431.8	4112
432.0	4137
432.2	4160
432.4	4190
432.6	4232
432.8	4263
433.0	4302
433.2	4346
433.4	4394
433.6	4438
433.8	4465
434.0	4488
434.2	4512
434.4	4545
434.6	4567
434.8	4594
435.0	4627
435.2	4666
435.4	4701
435.6	4741
435.8	4771
436.0	4811
436.2	4846
436.4	4863
436.6	4887
436.8	4915
437.0	4949
437.2	4990
437.4	5007
437.6	5017
437.8	5050
438.0	5089
438.2	5128
438.4	5171
438.6	5191
438.8	5197
439.0	5215
439.2	5248
439.4	5296
439.6	5339
439.8	5380
440.0	5408
440.2	5421
440.4	5456
440.6	5487
440.8	5508
441.0	5527
441.2	5546
441.4	5558
441.6	5594
441.8	5627
442.0	5671
442.2	5698
442.4	5723
442.6	5746
442.8	5757
443.0	5786
443.2	5822
443.4	5849
443.6	5886
443.8	5909
444.0	5917
444.2	5950
444.4	5979
444.6	6003
444.8	6033
445.0	6046
445.2	6071
445.4	6101
445.6	6118
445.8	6131
446.0	6146
446.2	6167
446.4	6204
446.6	6238
446.8	6257
447.0	6262
447.2	6280
447.4	6304
447.6	6338
447.8	6359
448.0	6379
448.2	6399
448.4	6435
448.6	6470
448.8	6496
449.0	6511
449.2	6527
449.4	6558
449.6	6588
449.8	6613
450.0	6619
450.2	6641
450.4	6655
450.6	6690
450.8	6722
451.0	6758
451.2	6764
451.4	6780
451.6	6768
451.8	6774
452.0	6788
452.2	6827
452.4	6858
452.6	6900
452.8	6925
453.0	6958
453.2	6976
453.4	6992
453.6	7009
453.8	7023
454.0	7047
454.2	7075
454.4	7102
454.6	7111
454.8	7130
455.0	7134
455.2	7161
455.4	7198
455.6	7226
455.8	7256
456.0	7276
456.2	7293
456.4	7323
456.6	7344
456.8	7353
457.0	7360
457.2	7362
457.4	7394
457.6	7420
457.8	7431
458.0	7450
458.2	7465
458.4	7493
458.6	7524
458.8	7560
459.0	7574
459.2	7589
459.4	7591
459.6	7597
459.8	7606
460.0	7639
460.2	7662
460.4	7704
460.6	7712
460.8	7707
461.0	7724
461.2	7749
461.4	7757
461.6	7801
461.8	7824
462.0	7846
462.2	7866
462.4	7882
462.6	7885
462.8	7906
463.0	7901
463.2	7926
463.4	7940
463.6	7968
463.8	7983
464.0	7997
464.2	7989
464.4	8009
464.6	8040
464.8	8076
465.0	8076
465.2	8077
465.4	8095
465.6	8102
465.8	8127
466.0	8130
466.2	8147
466.4	8148
466.6	8158
466.8	8152
467.0	8156
467.2	8151
467.4	8192
467.6	8222
467.8	8247
468.0	8255
468.2	8253
468.4	8250
468.6	8263
468.8	8266
469.0	8274
469.2	8296
469.4	8321
469.6	8344
469.8	8366
470.0	8366
470.2	8364
470.4	8387
470.6	8389
470.8	8393
471.0	8388
471.2	8384
471.4	8381
471.6	8402
471.8	8417
472.0	8442
472.2	8451
472.4	8461
472.6	8482
472.8	8489
473.0	8491
473.2	8481
473.4	8485
473.6	8476
473.8	8502
474.0	8501
474.2	8505
474.4	8504
474.6	8518
474.8	8518
475.0	8525
475.2	8514
475.4	8516
475.6	8529
475.8	8535
476.0	8561
476.2	8559
476.4	8551
476.6	8547
476.8	8541
477.0	8532
477.2	8571
477.4	8582
477.6	8581
477.8	8566
478.0	8538
478.2	8522
478.4	8547
478.6	8562
478.8	8549
479.0	8554
479.2	8564
479.4	8578
479.6	8590
479.8	8610
480.0	8605
480.2	8596
480.4	8567
480.6	8544
480.8	8527
481.0	8548
481.2	8558
481.4	8566
481.6	8554
481.8	8559
482.0	8573
482.2	8593
482.4	8578
482.6	8576
482.8	8554
483.0	8556
483.2	8573
483.4	8586
483.6	8595
483.8	8589
484.0	8568
484.2	8542
484.4	8522
484.6	8525
484.8	8551
485.0	8556
485.2	8582
485.4	8568
485.6	8543
485.8	8522
486.0	8512
486.2	8492
486.4	8499
486.6	8499
486.8	8500
487.0	8494
487.2	8492
487.4	8489
487.6	8475
487.8	8470
488.0	8452
488.2	8449
488.4	8438
488.6	8426
488.8	8407
489.0	8401
489.2	8402
489.4	8403
489.6	8404
489.8	8388
490.0	8372
490.2	8367
490.4	8364
490.6	8346
490.8	8330
491.0	8302
491.2	8284
491.4	8283
491.6	8265
491.8	8266
492.0	8268
492.2	8264
492.4	8251
492.6	8249
492.8	8233
493.0	8237
493.2	8220
493.4	8188
493.6	8148
493.8	8130
494.0	8127
494.2	8141
494.4	8122
494.6	8091
494.8	8064
495.0	8027
495.2	8003
495.4	7998
495.6	8001
495.8	8005
496.0	7997
496.2	7956
496.4	7935
496.6	7927
496.8	7922
497.0	7908
497.2	7879
497.4	7852
497.6	7844
497.8	7837
498.0	7817
498.2	7785
498.4	7745
498.6	7734
498.8	7727
499.0	7712
499.2	7708
499.4	7692
499.6	7679
499.8	7680
500.0	7666
500.2	7632
500.4	7612
500.6	7573
500.8	7553
501.0	7526
501.2	7497
501.4	7498
501.6	7492
501.8	7477
502.0	7444
502.2	7398
502.4	7364
502.6	7366
502.8	7354
503.0	7362
503.2	7336
503.4	7297
503.6	7273
503.8	7244
504.0	7196
504.2	7193
504.4	7170
504.6	7156
504.8	7149
505.0	7123
505.2	7090
505.4	7073
505.6	7050
505.8	7026
506.0	6988
506.2	6955
506.4	6951
506.6	6943
506.8	6934
507.0	6893
507.2	6858
507.4	6834
507.6	6816
507.8	6802
508.0	6789
508.2	6755
508.4	6749
508.6	6716
508.8	6678
509.0	6648
509.2	6636
509.4	6630
509.6	6627
509.8	6603
510.0	6557
510.2	6516
510.4	6499
510.6	6483
510.8	6464
511.0	6445
511.2	6410
511.4	6391
511.6	6385
511.8	6360
512.0	6331
512.2	6292
512.4	6263
512.6	6253
512.8	6259
513.0	6249
513.2	6234
513.4	6201
513.6	6171
513.8	6140
514.0	6128
514.2	6103
514.4	6075
514.6	6054
514.8	6038
515.0	6021
515.2	6009
515.4	5981
515.6	5946
515.8	5912
516.0	5881
516.2	5856
516.4	5829
516.6	5808
516.8	5802
517.0	5768
517.2	5747
517.4	5729
517.6	5712
517.8	5699
518.0	5693
518.2	5671
518.4	5645
518.6	5614
518.8	5582
519.0	5568
519.2	5559
519.4	5560
519.6	5543
519.8	5511
520.0	5466
520.2	5447
520.4	5424
520.6	5419
520.8	5410
521.0	5380
521.2	5347
521.4	5319
521.6	5284
521.8	5277
522.0	5260
522.2	5239
522.4	5216
522.6	5195
522.8	5176
523.0	5164
523.2	5156
523.4	5149
523.6	5132
523.8	5121
524.0	5097
524.2	5049
524.4	5018
524.6	4988
524.8	4966
525.0	4954
525.2	4943
525.4	4920
525.6	4917
525.8	4895
526.0	4877
526.2	4857
526.4	4827
526.6	4805
526.8	4798
527.0	4778
527.2	4764
527.4	4753
527.6	4719
527.8	4710
528.0	4692
528.2	4680
528.4	4659
528.6	4636
528.8	4606
529.0	4594
529.2	4581
529.4	4578
529.6	4571
529.8	4549
530.0	4528
530.2	4489
530.4	4461
530.6	4436
530.8	4411
531.0	4385
531.2	4369
531.4	4337
531.6	4333
531.8	4319
532.0	4311
532.2	4293
532.4	4269
532.6	4247
532.8	4241
533.0	4223
533.2	4218
533.4	4193
533.6	4172
533.8	4153
534.0	4130
534.2	4121
534.4	4107
534.6	4089
534.8	4074
535.0	4049
535.2	4032
535.4	4026
535.6	4001
535.8	3988
536.0	3970
536.2	3930
536.4	3909
536.6	3895
536.8	3882
537.0	3876
537.2	3863
537.4	3834
537.6	3815
537.8	3810
538.0	3803
538.2	3789
538.4	3762
538.6	3741
538.8	3721
539.0	3705
539.2	3681
539.4	3668
539.6	3657
539.8	3647
540.0	3644
540.2	3617
540.4	3584
540.6	3571
540.8	3558
541.0	3540
541.2	3527
541.4	3501
541.6	3476
541.8	3463
542.0	3448
542.2	3435
542.4	3420
542.6	3409
542.8	3393
543.0	3381
543.2	3362
543.4	3341
543.6	3329
543.8	3304
544.0	3286
544.2	3272
544.4	3253
544.6	3232
544.8	3235
545.0	3213
545.2	3198
545.4	3179
545.6	3165
545.8	3151
546.0	3140
546.2	3112
546.4	3083
546.6	3056
546.8	3048
547.0	3047
547.2	3031
547.4	3010
547.6	2984
547.8	2964
548.0	2958
548.2	2956
548.4	2957
548.6	2944
548.8	2925
549.0	2897
549.2	2879
549.4	2862
549.6	2846
549.8	2832
550.0	2817
550.2	2798
550.4	2792
550.6	2783
550.8	2766
551.0	2759
551.2	2745
551.4	2724
551.6	2695
551.8	2678
552.0	2670
552.2	2667
552.4	2657
552.6	2643
552.8	2616
553.0	2603
553.2	2597
553.4	2591
553.6	2580
553.8	2564
554.0	2537
554.2	2521
554.4	2507
554.6	2503
554.8	2497
555.0	2486
555.2	2466
555.4	2452
555.6	2432
555.8	2421
556.0	2398
556.2	2372
556.4	2356
556.6	2346
556.8	2338
557.0	2340
557.2	2334
557.4	2325
557.6	2313
557.8	2293
558.0	2269
558.2	2258
558.4	2245
558.6	2236
558.8	2230
559.0	2222
559.2	2209
559.4	2204
559.6	2180
559.8	2150
560.0	2139
560.2	2130
560.4	2121
560.6	2114
560.8	2103
561.0	2084
561.2	2080
561.4	2071
561.6	2061
561.8	2042
562.0	2042
562.2	2027
562.4	2020
562.6	2008
562.8	1993
563.0	1973
563.2	1973
563.4	1956
563.6	1949
563.8	1948
564.0	1931
564.2	1916
564.4	1911
564.6	1894
564.8	1890
565.0	1886
565.2	1876
565.4	1862
565.6	1849
565.8	1835
566.0	1829
566.2	1817
566.4	1812
566.6	1796
566.8	1780
567.0	1775
567.2	1769
567.4	1764
567.6	1758
567.8	1744
568.0	1733
568.2	1721
568.4	1709
568.6	1704
568.8	1694
569.0	1679
569.2	1667
569.4	1661
569.6	1650
569.8	1639
570.0	1624
570.2	1607
570.4	1592
570.6	1595
570.8	1595
571.0	1590
571.2	1582
571.4	1579
571.6	1565
571.8	1563
572.0	1553
572.2	1540
572.4	1527
572.6	1527
572.8	1516
573.0	1515
573.2	1513
573.4	1510
573.6	1496
573.8	1481
574.0	1464
574.2	1447
574.4	1454
574.6	1451
574.8	1439
575.0	1429
575.2	1420
575.4	1410
575.6	1408
575.8	1396
576.0	1382
576.2	1372
576.4	1364
576.6	1355
576.8	1350
577.0	1343
577.2	1337
577.4	1330
577.6	1321
577.8	1316
578.0	1319
578.2	1318
578.4	1310
578.6	1304
578.8	1286
579.0	1277
579.2	1267
579.4	1258
579.6	1250
579.8	1252
580.0	1244
580.2	1237
580.4	1227
580.6	1221
580.8	1212
581.0	1209
581.2	1201
581.4	1190
581.6	1183
581.8	1183
582.0	1183
582.2	1177
582.4	1168
582.6	1154
582.8	1145
583.0	1139
583.2	1130
583.4	1120
583.6	1114
583.8	1106
584.0	1105
584.2	1105
584.4	1102
584.6	1101
584.8	1096
585.0	1086
585.2	1081
585.4	1075
585.6	1065
585.8	1056
586.0	1044
586.2	1037
586.4	1037
586.6	1034
586.8	1024
587.0	1020
587.2	1010
587.4	1008
587.6	1003
587.8	998.1
588.0	989.6
588.2	981.6
588.4	968.0
588.6	968.2
588.8	969.1
589.0	968.4
589.2	965.4
589.4	959.1
589.6	949.9
589.8	944.5
590.0	938.1
590.2	931.1
590.4	924.8
590.6	919.4
590.8	918.7
591.0	911.3
591.2	901.3
591.4	889.1
591.6	887.4
591.8	887.2
592.0	886.9
592.2	883.3
592.4	876.1
592.6	867.4
592.8	863.7
593.0	853.8
593.2	840.2
593.4	835.1
593.6	832.9
593.8	837.6
594.0	837.5
594.2	835.3
594.4	826.7
594.6	822.0
594.8	818.1
595.0	813.1
595.2	803.2
595.4	797.7
595.6	793.3
595.8	785.0
596.0	784.7
596.2	787.1
596.4	779.9
596.6	776.4
596.8	773.9
597.0	764.0
597.2	763.4
597.4	763.0
597.6	754.7
597.8	742.8
598.0	735.0
598.2	730.4
598.4	731.3
598.6	725.7
598.8	723.5
599.0	716.8
599.2	712.2
599.4	706.1
599.6	704.7
599.8	698.4
600.0	695.1
600.2	693.3
600.4	690.3
600.6	682.6
600.8	679.2
601.0	678.3
601.2	674.6
601.4	673.1
601.6	667.1
601.8	660.6
602.0	657.9
602.2	657.2
602.4	652.7
602.6	646.8
602.8	638.6
603.0	632.8
603.2	630.5
603.4	629.5
603.6	627.7
603.8	622.9
604.0	619.7
604.2	611.3
604.4	606.3
604.6	607.2
604.8	603.0
605.0	604.9
605.2	605.5
605.4	598.6
605.6	592.8
605.8	584.3
606.0	573.1
606.2	573.6
606.4	570.5
606.6	568.5
606.8	567.1
607.0	563.5
607.2	560.3
607.4	563.8
607.6	558.4
607.8	549.4
608.0	543.2
608.2	539.9
608.4	536.9
608.6	536.7
608.8	531.7
609.0	525.4
609.2	526.2
609.4	528.5
609.6	527.6
609.8	522.5
610.0	515.3
610.2	511.3
610.4	510.5
610.6	505.5
610.8	501.0
611.0	497.1
611.2	495.7
611.4	495.9
611.6	492.7
611.8	489.3
612.0	487.2
612.2	484.0
612.4	477.3
612.6	471.0
612.8	464.9
613.0	466.2
613.2	463.5
613.4	462.4
613.6	457.3
613.8	455.0
614.0	453.4
614.2	451.8
614.4	445.8
614.6	442.2
614.8	441.4
615.0	440.5
615.2	440.3
615.4	437.8
615.6	436.7
615.8	429.7
616.0	424.8
616.2	419.5
616.4	416.4
616.6	413.7
616.8	415.8
617.0	413.1
617.2	413.0
617.4	411.5
617.6	409.0
617.8	405.2
618.0	400.7
618.2	397.8
618.4	395.0
618.6	391.3
618.8	388.1
619.0	386.4
619.2	381.0
619.4	378.7
619.6	376.0
619.8	372.6
620.0	369.0
620.2	369.9
620.4	370.7
620.6	368.7
620.8	369.1
621.0	369.0
621.2	362.1
621.4	360.0
621.6	356.2
621.8	350.4
622.0	352.5
622.2	351.9
622.4	346.8
622.6	344.4
622.8	341.1
623.0	343.0
623.2	347.8
623.4	347.2
623.6	342.7
623.8	336.0
624.0	327.7
624.2	323.8
624.4	323.8
624.6	323.0
624.8	321.0
625.0	319.2
625.2	317.0
625.4	319.0
625.6	317.9
625.8	317.1
626.0	312.9
626.2	306.4
626.4	303.4
626.6	303.9
626.8	298.2
627.0	298.7
627.2	299.2
627.4	296.7
627.6	298.1
627.8	297.6
628.0	294.3
628.2	292.0
628.4	288.4
628.6	285.6
628.8	283.6
629.0	281.7
629.2	280.4
629.4	280.4
629.6	279.6
629.8	278.9
630.0	276.1
630.2	275.5
630.4	272.3
630.6	271.6
630.8	269.0
631.0	264.8
631.2	263.4
631.4	261.6
631.6	257.1
631.8	255.7
632.0	252.5
632.2	248.9
632.4	249.8
632.6	248.9
632.8	248.2
633.0	246.8
633.2	244.9
633.4	243.4
633.6	240.8
633.8	238.1
634.0	239.2
634.2	238.2
634.4	235.1
634.6	232.8
634.8	228.4
635.0	226.6
635.2	228.9
635.4	233.5
635.6	232.2
635.8	229.1
636.0	225.6
636.2	222.7
636.4	218.7
636.6	217.1
636.8	214.4
637.0	213.3
637.2	215.5
637.4	218.5
637.6	219.4
637.8	218.0
638.0	215.8
638.2	212.3
638.4	208.7
638.6	205.8
638.8	202.3
639.0	201.7
639.2	200.9
639.4	200.3
639.6	199.0
639.8	196.8
640.0	195.3
640.2	194.2
640.4	193.8
640.6	193.7
640.8	194.8
641.0	195.2
641.2	197.5
641.4	192.3
641.6	187.7
641.8	182.1
642.0	183.9
642.2	184.7
642.4	186.1
642.6	182.0
642.8	178.0
643.0	173.5
643.2	177.2
643.4	178.3
643.6	179.1
643.8	177.5
644.0	175.7
644.2	171.7
644.4	169.8
644.6	167.6
644.8	167.8
645.0	167.5
645.2	166.8
645.4	167.1
645.6	165.4
645.8	163.4
646.0	162.4
646.2	161.0
646.4	159.2
646.6	157.5
646.8	155.4
647.0	154.7
647.2	154.6
647.4	155.8
647.6	156.2
647.8	152.5
648.0	150.0
648.2	149.1
648.4	149.3
648.6	148.0
648.8	146.9
649.0	142.3
649.2	138.8
649.4	139.2
649.6	141.2
649.8	142.5
650.0	143.4
650.2	140.8
650.4	137.2
650.6	137.7
650.8	138.2
651.0	137.6
651.2	137.5
651.4	135.9
651.6	133.7
651.8	132.5
652.0	130.8
652.2	129.1
652.4	128.4
652.6	128.4
652.8	127.9
653.0	127.1
653.2	125.0
653.4	123.8
653.6	123.9
653.8	124.0
654.0	125.1
654.2	126.2
654.4	123.6
654.6	123.1
654.8	122.5
655.0	120.7
655.2	119.9
655.4	119.4
655.6	117.1
655.8	118.2
656.0	117.0
656.2	117.1
656.4	116.0
656.6	115.2
656.8	115.5
657.0	115.7
657.2	113.1
657.4	111.5
657.6	109.9
657.8	108.3
658.0	109.2
658.2	109.3
658.4	106.6
658.6	104.7
658.8	105.5
659.0	105.9
659.2	106.1
659.4	105.9
659.6	104.5
659.8	102.2
660.0	102.9
660.2	102.7
660.4	101.9
660.6	101.4
660.8	100.6
661.0	98.32
661.2	97.88
661.4	96.62
661.6	96.50
661.8	97.21
662.0	97.52
662.2	96.24
662.4	94.85
662.6	93.17
662.8	92.52
663.0	92.04
663.2	91.21
663.4	90.53
663.6	89.78
663.8	88.62
664.0	89.18
664.2	88.86
664.4	88.47
664.6	90.11
664.8	90.70
665.0	88.83
665.2	87.69
665.4	83.77
665.6	82.41
665.8	83.26
666.0	83.30
666.2	83.73
666.4	85.06
666.6	83.66
666.8	84.06
667.0	83.48
667.2	82.63
667.4	82.69
667.6	82.71
667.8	80.75
668.0	79.09
668.2	77.65
668.4	78.31
668.6	77.63
668.8	76.02
669.0	74.96
669.2	73.11
669.4	74.35
669.6	73.72
669.8	73.66
670.0	73.01
670.2	73.74
670.4	72.01
670.6	72.51
670.8	70.60
671.0	71.07
671.2	71.10
671.4	71.25
671.6	69.74
671.8	68.09
672.0	67.22
672.2	67.87
672.4	67.95
672.6	69.05
672.8	68.73
673.0	66.96
673.2	66.36
673.4	65.12
673.6	62.86
673.8	63.68
674.0	64.35
674.2	64.67
674.4	65.47
674.6	64.47
674.8	63.08
675.0	63.30
675.2	62.88
675.4	61.53
675.6	61.56
675.8	59.69
676.0	59.56
676.2	60.29
676.4	60.77
676.6	60.86
676.8	60.28
677.0	58.95
677.2	58.05
677.4	59.29
677.6	60.11
677.8	58.96
678.0	56.05
678.2	56.43
678.4	55.43
678.6	56.76
678.8	56.02
679.0	54.46
679.2	53.03
679.4	55.42
679.6	57.06
679.8	56.73
680.0	52.84

