Sample:	'20211010A(EM)
File name:	B-CDS 2.FDS
Run date:	'09:08:55, 06/08/2023
Operator:	Administrator
Comment:	'

Instrument
Model:	F-4700 FL Spectrophotometer
Serial number:	2019-001
ROM Version:	5J24010 00

Instrument parameters
Measurement type:	Wavelength scan
Scan mode:	Emission
Data mode:	Fluorescence
EX WL:	350.0 nm
EM  Start WL:	370.0 nm
EM  End WL:	680.0 nm
Scan speed:	1200 nm/min
Delay:	0.0 s
EX Slit:	10.0 nm
EM Slit:	10.0 nm
PMT Voltage:	550 V
Response:	0.002 s
Corrected spectra:	Off
Shutter control:	On

Processing performed
Savitsky-Golay smoothed
Smoothing order:	3
Number of points:	7
Number of times:	1

Peak integration
Integration method:	Rectangular
Sensitivity:	1
Threshold:	1.000

Peaks
No.	Start(nm)	Apex(nm)	End(nm)	Height(Data)	Valley(nm)	Valley(Data)
1	372.4	376.2	377.8	7.374	377.8	5.773
2	377.8	378.8	379.6	7.004	379.6	5.866
3	379.6	381.0	382.0	7.339	382.0	5.664
4	382.0	383.0	383.8	7.510	383.8	6.500
5	383.8	490.4	491.2	3612	491.2	3591
6	491.2	493.4	494.8	3648	494.8	3607
7	494.8	495.6	497.8	3639	497.8	3580
8	497.8	498.4	672.6	3594	672.6	51.01
9	672.6	673.2	680.0	53.17	680.0	40.53

Data points
nm	Data
370.0	6.482
370.2	6.346
370.4	6.296
370.6	6.224
370.8	5.904
371.0	5.527
371.2	5.317
371.4	5.481
371.6	5.943
371.8	5.711
372.0	5.561
372.2	5.446
372.4	5.107
372.6	5.521
372.8	5.982
373.0	5.935
373.2	5.964
373.4	5.987
373.6	5.300
373.8	5.523
374.0	5.555
374.2	5.597
374.4	5.509
374.6	5.835
374.8	6.118
375.0	6.733
375.2	6.577
375.4	6.521
375.6	6.122
375.8	6.117
376.0	6.808
376.2	7.374
376.4	7.091
376.6	6.638
376.8	6.267
377.0	5.910
377.2	6.153
377.4	6.367
377.6	6.195
377.8	5.773
378.0	5.906
378.2	6.199
378.4	6.577
378.6	6.972
378.8	7.004
379.0	6.569
379.2	6.195
379.4	6.308
379.6	5.866
379.8	6.111
380.0	6.223
380.2	6.029
380.4	6.103
380.6	6.717
380.8	6.748
381.0	7.339
381.2	6.967
381.4	6.256
381.6	6.366
381.8	6.164
382.0	5.664
382.2	6.009
382.4	5.922
382.6	6.322
382.8	7.248
383.0	7.510
383.2	7.315
383.4	6.972
383.6	6.525
383.8	6.500
384.0	6.588
384.2	7.071
384.4	7.241
384.6	7.045
384.8	7.029
385.0	7.015
385.2	6.678
385.4	7.016
385.6	6.819
385.8	6.806
386.0	7.044
386.2	6.860
386.4	6.842
386.6	7.521
386.8	7.520
387.0	7.323
387.2	7.304
387.4	6.705
387.6	6.788
387.8	7.158
388.0	7.075
388.2	6.882
388.4	7.307
388.6	7.198
388.8	7.399
389.0	7.797
389.2	7.731
389.4	7.201
389.6	7.690
389.8	7.432
390.0	7.321
390.2	7.822
390.4	7.711
390.6	7.643
390.8	8.191
391.0	8.178
391.2	8.286
391.4	8.231
391.6	7.808
391.8	8.023
392.0	7.918
392.2	7.579
392.4	7.755
392.6	7.849
392.8	8.255
393.0	8.341
393.2	8.139
393.4	8.578
393.6	9.102
393.8	9.485
394.0	9.913
394.2	9.720
394.4	9.233
394.6	9.039
394.8	8.927
395.0	9.047
395.2	9.368
395.4	9.961
395.6	10.10
395.8	9.339
396.0	9.340
396.2	9.952
396.4	10.60
396.6	11.23
396.8	11.59
397.0	11.32
397.2	10.88
397.4	10.68
397.6	11.16
397.8	11.44
398.0	12.51
398.2	12.94
398.4	12.61
398.6	12.24
398.8	11.70
399.0	11.47
399.2	12.07
399.4	12.44
399.6	12.93
399.8	13.85
400.0	13.73
400.2	13.66
400.4	13.33
400.6	12.95
400.8	13.05
401.0	14.17
401.2	15.43
401.4	16.07
401.6	16.48
401.8	15.81
402.0	15.92
402.2	16.83
402.4	18.17
402.6	19.23
402.8	19.76
403.0	19.35
403.2	19.53
403.4	19.87
403.6	20.10
403.8	20.96
404.0	21.44
404.2	22.28
404.4	23.35
404.6	24.22
404.8	24.40
405.0	25.21
405.2	25.97
405.4	27.22
405.6	28.59
405.8	29.62
406.0	30.08
406.2	30.08
406.4	30.48
406.6	31.90
406.8	33.25
407.0	34.71
407.2	36.04
407.4	37.65
407.6	39.64
407.8	40.96
408.0	42.16
408.2	43.06
408.4	44.49
408.6	46.72
408.8	47.60
409.0	48.23
409.2	48.72
409.4	51.27
409.6	53.10
409.8	55.79
410.0	58.37
410.2	60.01
410.4	60.05
410.6	63.51
410.8	65.63
411.0	67.69
411.2	69.56
411.4	72.49
411.6	75.30
411.8	80.49
412.0	85.77
412.2	87.58
412.4	88.06
412.6	91.63
412.8	94.08
413.0	96.38
413.2	99.06
413.4	100.7
413.6	102.7
413.8	107.1
414.0	110.6
414.2	114.9
414.4	118.8
414.6	123.4
414.8	129.6
415.0	134.0
415.2	137.2
415.4	141.2
415.6	143.1
415.8	144.6
416.0	149.9
416.2	155.7
416.4	160.8
416.6	166.9
416.8	172.7
417.0	176.2
417.2	182.2
417.4	188.5
417.6	193.8
417.8	198.2
418.0	204.4
418.2	207.3
418.4	211.7
418.6	216.4
418.8	223.1
419.0	226.7
419.2	232.5
419.4	237.0
419.6	244.5
419.8	249.2
420.0	255.7
420.2	261.3
420.4	268.0
420.6	276.2
420.8	283.5
421.0	291.4
421.2	298.6
421.4	305.1
421.6	310.6
421.8	315.4
422.0	321.5
422.2	328.9
422.4	337.2
422.6	344.6
422.8	352.0
423.0	360.1
423.2	368.4
423.4	371.2
423.6	379.9
423.8	387.3
424.0	396.2
424.2	408.6
424.4	417.9
424.6	426.9
424.8	435.9
425.0	439.0
425.2	440.8
425.4	448.5
425.6	457.4
425.8	469.1
426.0	478.7
426.2	487.3
426.4	490.4
426.6	502.3
426.8	508.9
427.0	519.1
427.2	525.4
427.4	534.7
427.6	544.3
427.8	556.2
428.0	566.6
428.2	575.7
428.4	582.3
428.6	591.5
428.8	602.4
429.0	608.4
429.2	620.4
429.4	627.3
429.6	633.7
429.8	644.4
430.0	651.9
430.2	660.7
430.4	670.9
430.6	681.1
430.8	685.6
431.0	697.4
431.2	710.0
431.4	722.2
431.6	728.0
431.8	733.8
432.0	735.4
432.2	742.3
432.4	752.4
432.6	762.2
432.8	769.4
433.0	785.7
433.2	801.2
433.4	814.5
433.6	824.1
433.8	830.8
434.0	831.8
434.2	838.4
434.4	847.1
434.6	852.7
434.8	861.4
435.0	873.5
435.2	880.8
435.4	891.6
435.6	902.8
435.8	909.1
436.0	916.0
436.2	926.9
436.4	935.6
436.6	949.9
436.8	961.6
437.0	971.0
437.2	975.0
437.4	977.0
437.6	981.1
437.8	985.6
438.0	998.2
438.2	1012
438.4	1025
438.6	1032
438.8	1040
439.0	1044
439.2	1051
439.4	1057
439.6	1066
439.8	1071
440.0	1085
440.2	1091
440.4	1098
440.6	1107
440.8	1119
441.0	1126
441.2	1137
441.4	1145
441.6	1154
441.8	1165
442.0	1174
442.2	1182
442.4	1190
442.6	1198
442.8	1207
443.0	1215
443.2	1221
443.4	1234
443.6	1242
443.8	1241
444.0	1245
444.2	1246
444.4	1252
444.6	1262
444.8	1276
445.0	1291
445.2	1297
445.4	1308
445.6	1314
445.8	1316
446.0	1329
446.2	1339
446.4	1344
446.6	1360
446.8	1369
447.0	1379
447.2	1389
447.4	1397
447.6	1406
447.8	1417
448.0	1423
448.2	1426
448.4	1430
448.6	1436
448.8	1446
449.0	1457
449.2	1475
449.4	1485
449.6	1492
449.8	1499
450.0	1500
450.2	1506
450.4	1514
450.6	1523
450.8	1535
451.0	1553
451.2	1559
451.4	1578
451.6	1587
451.8	1604
452.0	1616
452.2	1619
452.4	1626
452.6	1641
452.8	1650
453.0	1662
453.2	1674
453.4	1680
453.6	1694
453.8	1701
454.0	1701
454.2	1704
454.4	1719
454.6	1742
454.8	1760
455.0	1774
455.2	1774
455.4	1775
455.6	1789
455.8	1814
456.0	1835
456.2	1860
456.4	1857
456.6	1857
456.8	1866
457.0	1873
457.2	1887
457.4	1913
457.6	1922
457.8	1936
458.0	1948
458.2	1953
458.4	1962
458.6	1973
458.8	1988
459.0	2006
459.2	2021
459.4	2038
459.6	2051
459.8	2056
460.0	2070
460.2	2076
460.4	2089
460.6	2108
460.8	2126
461.0	2145
461.2	2157
461.4	2160
461.6	2173
461.8	2188
462.0	2201
462.2	2210
462.4	2224
462.6	2243
462.8	2262
463.0	2282
463.2	2295
463.4	2294
463.6	2308
463.8	2315
464.0	2327
464.2	2342
464.4	2369
464.6	2388
464.8	2405
465.0	2413
465.2	2420
465.4	2435
465.6	2456
465.8	2461
466.0	2475
466.2	2495
466.4	2512
466.6	2527
466.8	2541
467.0	2539
467.2	2555
467.4	2561
467.6	2571
467.8	2584
468.0	2606
468.2	2621
468.4	2639
468.6	2637
468.8	2646
469.0	2660
469.2	2669
469.4	2683
469.6	2706
469.8	2731
470.0	2757
470.2	2771
470.4	2779
470.6	2777
470.8	2788
471.0	2802
471.2	2804
471.4	2810
471.6	2827
471.8	2837
472.0	2858
472.2	2876
472.4	2885
472.6	2904
472.8	2922
473.0	2925
473.2	2929
473.4	2945
473.6	2960
473.8	2979
474.0	2998
474.2	3007
474.4	3022
474.6	3036
474.8	3031
475.0	3029
475.2	3028
475.4	3049
475.6	3082
475.8	3111
476.0	3118
476.2	3125
476.4	3129
476.6	3140
476.8	3149
477.0	3154
477.2	3158
477.4	3159
477.6	3176
477.8	3186
478.0	3193
478.2	3201
478.4	3221
478.6	3230
478.8	3243
479.0	3262
479.2	3275
479.4	3294
479.6	3291
479.8	3283
480.0	3282
480.2	3288
480.4	3297
480.6	3318
480.8	3338
481.0	3356
481.2	3362
481.4	3356
481.6	3358
481.8	3370
482.0	3386
482.2	3397
482.4	3405
482.6	3411
482.8	3409
483.0	3423
483.2	3424
483.4	3428
483.6	3446
483.8	3454
484.0	3450
484.2	3473
484.4	3483
484.6	3481
484.8	3479
485.0	3478
485.2	3477
485.4	3499
485.6	3510
485.8	3515
486.0	3511
486.2	3521
486.4	3521
486.6	3529
486.8	3535
487.0	3544
487.2	3555
487.4	3565
487.6	3565
487.8	3563
488.0	3563
488.2	3564
488.4	3569
488.6	3568
488.8	3583
489.0	3591
489.2	3607
489.4	3611
489.6	3609
489.8	3603
490.0	3608
490.2	3606
490.4	3612
490.6	3611
490.8	3605
491.0	3596
491.2	3591
491.4	3596
491.6	3608
491.8	3624
492.0	3623
492.2	3622
492.4	3616
492.6	3603
492.8	3609
493.0	3629
493.2	3637
493.4	3648
493.6	3647
493.8	3631
494.0	3631
494.2	3630
494.4	3620
494.6	3614
494.8	3607
495.0	3613
495.2	3622
495.4	3629
495.6	3639
495.8	3638
496.0	3634
496.2	3629
496.4	3622
496.6	3609
496.8	3610
497.0	3599
497.2	3595
497.4	3583
497.6	3583
497.8	3580
498.0	3592
498.2	3592
498.4	3594
498.6	3585
498.8	3583
499.0	3587
499.2	3588
499.4	3577
499.6	3569
499.8	3561
500.0	3554
500.2	3560
500.4	3558
500.6	3551
500.8	3547
501.0	3539
501.2	3522
501.4	3516
501.6	3510
501.8	3526
502.0	3536
502.2	3525
502.4	3514
502.6	3496
502.8	3491
503.0	3499
503.2	3485
503.4	3467
503.6	3471
503.8	3465
504.0	3464
504.2	3457
504.4	3458
504.6	3457
504.8	3450
505.0	3425
505.2	3404
505.4	3388
505.6	3392
505.8	3395
506.0	3385
506.2	3367
506.4	3363
506.6	3365
506.8	3378
507.0	3392
507.2	3398
507.4	3380
507.6	3356
507.8	3340
508.0	3320
508.2	3312
508.4	3316
508.6	3320
508.8	3305
509.0	3304
509.2	3278
509.4	3282
509.6	3280
509.8	3280
510.0	3261
510.2	3251
510.4	3240
510.6	3245
510.8	3237
511.0	3229
511.2	3210
511.4	3187
511.6	3171
511.8	3162
512.0	3169
512.2	3179
512.4	3187
512.6	3179
512.8	3158
513.0	3138
513.2	3125
513.4	3115
513.6	3110
513.8	3102
514.0	3097
514.2	3096
514.4	3090
514.6	3075
514.8	3062
515.0	3046
515.2	3049
515.4	3050
515.6	3054
515.8	3049
516.0	3036
516.2	3015
516.4	2999
516.6	2999
516.8	3003
517.0	2997
517.2	2989
517.4	2966
517.6	2950
517.8	2957
518.0	2959
518.2	2955
518.4	2951
518.6	2930
518.8	2908
519.0	2892
519.2	2888
519.4	2888
519.6	2894
519.8	2892
520.0	2875
520.2	2855
520.4	2834
520.6	2823
520.8	2829
521.0	2825
521.2	2828
521.4	2825
521.6	2812
521.8	2795
522.0	2785
522.2	2766
522.4	2767
522.6	2763
522.8	2752
523.0	2745
523.2	2735
523.4	2730
523.6	2729
523.8	2725
524.0	2715
524.2	2711
524.4	2712
524.6	2716
524.8	2715
525.0	2705
525.2	2682
525.4	2658
525.6	2644
525.8	2636
526.0	2626
526.2	2617
526.4	2619
526.6	2622
526.8	2618
527.0	2616
527.2	2593
527.4	2586
527.6	2592
527.8	2582
528.0	2568
528.2	2549
528.4	2517
528.6	2518
528.8	2523
529.0	2518
529.2	2514
529.4	2512
529.6	2505
529.8	2510
530.0	2504
530.2	2496
530.4	2484
530.6	2477
530.8	2473
531.0	2461
531.2	2445
531.4	2434
531.6	2432
531.8	2431
532.0	2424
532.2	2406
532.4	2394
532.6	2380
532.8	2377
533.0	2377
533.2	2369
533.4	2372
533.6	2377
533.8	2373
534.0	2360
534.2	2340
534.4	2322
534.6	2318
534.8	2314
535.0	2319
535.2	2311
535.4	2297
535.6	2293
535.8	2290
536.0	2281
536.2	2274
536.4	2256
536.6	2236
536.8	2228
537.0	2225
537.2	2218
537.4	2214
537.6	2208
537.8	2199
538.0	2195
538.2	2185
538.4	2168
538.6	2157
538.8	2148
539.0	2151
539.2	2152
539.4	2155
539.6	2147
539.8	2141
540.0	2128
540.2	2118
540.4	2111
540.6	2118
540.8	2116
541.0	2109
541.2	2094
541.4	2079
541.6	2063
541.8	2060
542.0	2049
542.2	2037
542.4	2030
542.6	2028
542.8	2012
543.0	2004
543.2	1987
543.4	1976
543.6	1973
543.8	1968
544.0	1956
544.2	1952
544.4	1943
544.6	1946
544.8	1949
545.0	1942
545.2	1934
545.4	1920
545.6	1902
545.8	1890
546.0	1878
546.2	1868
546.4	1865
546.6	1857
546.8	1848
547.0	1853
547.2	1848
547.4	1842
547.6	1840
547.8	1828
548.0	1815
548.2	1811
548.4	1794
548.6	1785
548.8	1785
549.0	1773
549.2	1766
549.4	1752
549.6	1744
549.8	1740
550.0	1745
550.2	1734
550.4	1726
550.6	1716
550.8	1710
551.0	1705
551.2	1706
551.4	1695
551.6	1678
551.8	1669
552.0	1663
552.2	1655
552.4	1647
552.6	1635
552.8	1625
553.0	1618
553.2	1618
553.4	1611
553.6	1600
553.8	1591
554.0	1584
554.2	1574
554.4	1573
554.6	1566
554.8	1557
555.0	1545
555.2	1534
555.4	1523
555.6	1518
555.8	1515
556.0	1510
556.2	1500
556.4	1490
556.6	1485
556.8	1474
557.0	1470
557.2	1465
557.4	1458
557.6	1444
557.8	1441
558.0	1432
558.2	1428
558.4	1429
558.6	1428
558.8	1421
559.0	1414
559.2	1404
559.4	1396
559.6	1390
559.8	1381
560.0	1377
560.2	1367
560.4	1356
560.6	1352
560.8	1349
561.0	1340
561.2	1333
561.4	1325
561.6	1322
561.8	1318
562.0	1317
562.2	1306
562.4	1299
562.6	1286
562.8	1281
563.0	1265
563.2	1259
563.4	1252
563.6	1258
563.8	1249
564.0	1240
564.2	1223
564.4	1216
564.6	1211
564.8	1208
565.0	1200
565.2	1193
565.4	1185
565.6	1185
565.8	1186
566.0	1180
566.2	1176
566.4	1176
566.6	1164
566.8	1159
567.0	1148
567.2	1137
567.4	1139
567.6	1143
567.8	1136
568.0	1131
568.2	1121
568.4	1112
568.6	1109
568.8	1107
569.0	1100
569.2	1099
569.4	1095
569.6	1091
569.8	1080
570.0	1068
570.2	1056
570.4	1057
570.6	1054
570.8	1054
571.0	1051
571.2	1050
571.4	1047
571.6	1040
571.8	1031
572.0	1023
572.2	1018
572.4	1017
572.6	1017
572.8	1007
573.0	1002
573.2	994.9
573.4	989.8
573.6	987.2
573.8	980.9
574.0	971.7
574.2	967.0
574.4	959.7
574.6	956.6
574.8	960.1
575.0	957.3
575.2	955.1
575.4	948.0
575.6	937.6
575.8	926.1
576.0	921.3
576.2	914.7
576.4	912.3
576.6	912.5
576.8	914.6
577.0	914.5
577.2	910.6
577.4	899.2
577.6	884.3
577.8	877.9
578.0	874.4
578.2	871.7
578.4	871.2
578.6	869.0
578.8	868.2
579.0	865.0
579.2	862.4
579.4	860.0
579.6	855.3
579.8	849.4
580.0	849.0
580.2	839.1
580.4	832.7
580.6	827.1
580.8	824.5
581.0	818.9
581.2	818.7
581.4	814.1
581.6	811.0
581.8	806.5
582.0	801.0
582.2	793.3
582.4	790.5
582.6	785.2
582.8	780.5
583.0	781.7
583.2	774.3
583.4	770.9
583.6	770.8
583.8	765.7
584.0	767.1
584.2	761.9
584.4	754.4
584.6	748.8
584.8	746.2
585.0	739.2
585.2	743.3
585.4	739.5
585.6	737.2
585.8	733.2
586.0	732.0
586.2	722.1
586.4	716.8
586.6	707.0
586.8	700.7
587.0	699.5
587.2	698.8
587.4	695.1
587.6	692.2
587.8	684.5
588.0	683.7
588.2	682.4
588.4	679.2
588.6	673.9
588.8	669.5
589.0	664.8
589.2	658.2
589.4	652.2
589.6	649.5
589.8	652.6
590.0	654.9
590.2	650.6
590.4	643.3
590.6	638.9
590.8	634.1
591.0	637.6
591.2	636.0
591.4	631.2
591.6	627.1
591.8	624.8
592.0	616.3
592.2	610.2
592.4	604.5
592.6	602.4
592.8	604.2
593.0	605.4
593.2	602.0
593.4	597.8
593.6	589.9
593.8	584.3
594.0	579.8
594.2	574.3
594.4	576.3
594.6	579.8
594.8	577.6
595.0	575.9
595.2	570.5
595.4	560.2
595.6	556.5
595.8	552.3
596.0	550.0
596.2	548.5
596.4	547.4
596.6	543.9
596.8	541.2
597.0	536.0
597.2	535.4
597.4	528.6
597.6	524.6
597.8	526.3
598.0	523.7
598.2	524.4
598.4	522.0
598.6	511.9
598.8	507.9
599.0	505.1
599.2	503.3
599.4	500.8
599.6	496.5
599.8	492.5
600.0	495.1
600.2	493.9
600.4	496.9
600.6	490.9
600.8	486.5
601.0	479.3
601.2	474.2
601.4	470.7
601.6	473.1
601.8	471.9
602.0	470.0
602.2	466.7
602.4	461.4
602.6	458.0
602.8	456.3
603.0	456.1
603.2	454.0
603.4	453.2
603.6	450.4
603.8	445.9
604.0	438.0
604.2	435.7
604.4	432.8
604.6	430.0
604.8	429.0
605.0	424.6
605.2	420.8
605.4	422.8
605.6	423.7
605.8	422.3
606.0	417.1
606.2	410.7
606.4	409.5
606.6	406.4
606.8	402.8
607.0	402.7
607.2	400.2
607.4	395.2
607.6	397.0
607.8	393.1
608.0	387.8
608.2	387.3
608.4	387.7
608.6	380.2
608.8	380.6
609.0	380.8
609.2	376.6
609.4	376.0
609.6	376.1
609.8	370.2
610.0	368.3
610.2	365.6
610.4	362.2
610.6	360.6
610.8	358.4
611.0	357.7
611.2	357.8
611.4	356.8
611.6	358.8
611.8	357.3
612.0	354.4
612.2	350.2
612.4	344.0
612.6	339.1
612.8	338.1
613.0	335.8
613.2	335.2
613.4	334.5
613.6	333.3
613.8	331.1
614.0	330.1
614.2	328.3
614.4	327.5
614.6	327.3
614.8	325.1
615.0	319.9
615.2	316.8
615.4	313.2
615.6	311.6
615.8	312.7
616.0	314.7
616.2	313.4
616.4	311.9
616.6	307.0
616.8	303.0
617.0	300.3
617.2	297.2
617.4	295.9
617.6	294.8
617.8	293.1
618.0	292.6
618.2	291.7
618.4	287.5
618.6	286.9
618.8	285.7
619.0	284.2
619.2	285.1
619.4	284.3
619.6	279.3
619.8	274.8
620.0	272.2
620.2	269.7
620.4	270.1
620.6	268.7
620.8	269.0
621.0	268.1
621.2	267.6
621.4	266.1
621.6	263.9
621.8	258.8
622.0	259.0
622.2	254.5
622.4	254.7
622.6	255.8
622.8	254.3
623.0	252.4
623.2	251.6
623.4	246.5
623.6	243.7
623.8	243.0
624.0	241.2
624.2	241.9
624.4	243.3
624.6	243.4
624.8	242.0
625.0	241.9
625.2	238.5
625.4	237.1
625.6	233.5
625.8	230.3
626.0	231.0
626.2	230.1
626.4	227.6
626.6	226.5
626.8	221.1
627.0	216.9
627.2	216.7
627.4	215.7
627.6	216.0
627.8	216.1
628.0	213.7
628.2	213.3
628.4	214.2
628.6	213.0
628.8	210.6
629.0	206.0
629.2	201.8
629.4	201.0
629.6	202.9
629.8	204.2
630.0	203.0
630.2	199.7
630.4	197.0
630.6	195.5
630.8	194.1
631.0	192.7
631.2	191.9
631.4	191.0
631.6	191.3
631.8	191.6
632.0	191.3
632.2	190.5
632.4	189.1
632.6	187.1
632.8	186.6
633.0	184.8
633.2	184.0
633.4	181.4
633.6	177.1
633.8	174.5
634.0	172.8
634.2	172.4
634.4	172.2
634.6	175.5
634.8	175.0
635.0	174.2
635.2	172.5
635.4	173.0
635.6	170.2
635.8	171.8
636.0	171.0
636.2	169.1
636.4	169.8
636.6	167.9
636.8	163.0
637.0	160.5
637.2	159.6
637.4	159.8
637.6	161.8
637.8	159.7
638.0	158.7
638.2	157.5
638.4	154.6
638.6	155.9
638.8	154.2
639.0	152.1
639.2	150.5
639.4	150.5
639.6	150.8
639.8	152.8
640.0	152.7
640.2	151.5
640.4	149.3
640.6	146.9
640.8	144.7
641.0	142.7
641.2	143.1
641.4	142.3
641.6	141.4
641.8	139.4
642.0	138.8
642.2	137.8
642.4	139.2
642.6	136.8
642.8	136.7
643.0	134.7
643.2	134.7
643.4	131.7
643.6	130.0
643.8	128.1
644.0	130.2
644.2	130.6
644.4	130.8
644.6	130.1
644.8	128.6
645.0	126.3
645.2	124.3
645.4	124.8
645.6	123.2
645.8	124.0
646.0	124.6
646.2	121.0
646.4	118.2
646.6	118.0
646.8	117.3
647.0	116.3
647.2	115.6
647.4	114.1
647.6	114.1
647.8	114.7
648.0	114.9
648.2	114.6
648.4	113.1
648.6	111.6
648.8	109.6
649.0	109.4
649.2	109.0
649.4	110.2
649.6	110.3
649.8	109.3
650.0	107.1
650.2	105.8
650.4	104.9
650.6	105.2
650.8	104.9
651.0	104.6
651.2	103.3
651.4	101.4
651.6	102.0
651.8	102.9
652.0	101.6
652.2	100.6
652.4	100.6
652.6	98.58
652.8	97.71
653.0	95.53
653.2	93.54
653.4	93.14
653.6	94.41
653.8	94.34
654.0	94.05
654.2	92.66
654.4	92.71
654.6	92.34
654.8	90.56
655.0	90.47
655.2	90.23
655.4	89.30
655.6	89.84
655.8	87.80
656.0	85.98
656.2	86.75
656.4	86.76
656.6	85.58
656.8	86.53
657.0	84.60
657.2	84.12
657.4	84.04
657.6	84.36
657.8	83.60
658.0	84.13
658.2	81.30
658.4	80.65
658.6	80.41
658.8	81.39
659.0	81.11
659.2	81.04
659.4	78.75
659.6	76.94
659.8	76.71
660.0	77.77
660.2	76.96
660.4	76.93
660.6	75.56
660.8	73.05
661.0	72.69
661.2	73.51
661.4	73.57
661.6	74.43
661.8	73.43
662.0	71.94
662.2	72.45
662.4	71.60
662.6	71.80
662.8	71.39
663.0	69.83
663.2	67.96
663.4	68.01
663.6	66.35
663.8	66.35
664.0	66.58
664.2	67.13
664.4	67.74
664.6	67.84
664.8	68.15
665.0	66.93
665.2	65.95
665.4	64.54
665.6	64.26
665.8	63.70
666.0	64.79
666.2	63.61
666.4	61.70
666.6	60.67
666.8	61.63
667.0	63.30
667.2	63.95
667.4	62.38
667.6	59.79
667.8	60.16
668.0	60.03
668.2	61.50
668.4	61.37
668.6	60.73
668.8	60.65
669.0	61.17
669.2	59.66
669.4	58.92
669.6	58.19
669.8	57.46
670.0	56.92
670.2	55.72
670.4	54.20
670.6	54.24
670.8	54.21
671.0	55.10
671.2	55.07
671.4	54.55
671.6	53.49
671.8	53.23
672.0	52.33
672.2	52.52
672.4	52.01
672.6	51.01
672.8	51.52
673.0	52.46
673.2	53.17
673.4	53.02
673.6	52.63
673.8	49.37
674.0	48.96
674.2	49.35
674.4	49.13
674.6	48.92
674.8	48.53
675.0	45.75
675.2	45.86
675.4	46.50
675.6	46.40
675.8	46.72
676.0	46.55
676.2	45.86
676.4	45.39
676.6	45.95
676.8	45.28
677.0	45.62
677.2	45.44
677.4	45.14
677.6	43.60
677.8	44.30
678.0	43.71
678.2	44.48
678.4	44.24
678.6	43.91
678.8	43.57
679.0	43.84
679.2	43.18
679.4	42.20
679.6	40.26
679.8	39.31
680.0	40.53

