Sample:	'20211010A(EM)
File name:	B-CDS 8 1 800.FDS
Run date:	'10:05:03, 06/08/2023
Operator:	Administrator
Comment:	'

Instrument
Model:	F-4700 FL Spectrophotometer
Serial number:	2019-001
ROM Version:	5J24010 00

Instrument parameters
Measurement type:	Wavelength scan
Scan mode:	Emission
Data mode:	Fluorescence
EX WL:	350.0 nm
EM  Start WL:	370.0 nm
EM  End WL:	680.0 nm
Scan speed:	1200 nm/min
Delay:	0.0 s
EX Slit:	10.0 nm
EM Slit:	10.0 nm
PMT Voltage:	350 V
Response:	0.002 s
Corrected spectra:	Off
Shutter control:	On

Processing performed
Savitsky-Golay smoothed
Smoothing order:	3
Number of points:	7
Number of times:	1

Peak integration
Integration method:	Rectangular
Sensitivity:	1
Threshold:	1.000

Peaks
No.	Start(nm)	Apex(nm)	End(nm)	Height(Data)	Valley(nm)	Valley(Data)
1	370.0	444.8	680.0	6764	680.0	8.196

Data points
nm	Data
370.0	13.28
370.2	13.40
370.4	13.71
370.6	14.14
370.8	14.52
371.0	15.01
371.2	15.25
371.4	15.43
371.6	15.85
371.8	16.37
372.0	16.73
372.2	17.35
372.4	17.61
372.6	17.91
372.8	18.50
373.0	18.99
373.2	19.40
373.4	20.06
373.6	20.57
373.8	21.08
374.0	21.66
374.2	22.19
374.4	22.72
374.6	23.27
374.8	23.77
375.0	24.38
375.2	25.21
375.4	26.00
375.6	26.79
375.8	27.55
376.0	28.28
376.2	29.05
376.4	29.90
376.6	30.72
376.8	31.86
377.0	32.86
377.2	33.79
377.4	34.51
377.6	35.24
377.8	36.34
378.0	37.71
378.2	39.29
378.4	40.53
378.6	41.69
378.8	42.84
379.0	44.10
379.2	45.24
379.4	46.95
379.6	48.61
379.8	50.58
380.0	52.48
380.2	54.03
380.4	55.24
380.6	56.46
380.8	58.21
381.0	60.44
381.2	62.64
381.4	65.03
381.6	67.30
381.8	69.14
382.0	71.36
382.2	73.51
382.4	75.68
382.6	78.17
382.8	80.95
383.0	83.69
383.2	86.77
383.4	89.43
383.6	92.29
383.8	95.32
384.0	98.49
384.2	102.0
384.4	105.8
384.6	109.5
384.8	113.4
385.0	117.4
385.2	121.4
385.4	125.2
385.6	129.0
385.8	133.6
386.0	138.3
386.2	143.0
386.4	148.3
386.6	153.1
386.8	157.9
387.0	163.3
387.2	168.8
387.4	173.9
387.6	179.4
387.8	185.4
388.0	191.4
388.2	197.5
388.4	204.3
388.6	210.4
388.8	216.8
389.0	224.0
389.2	231.5
389.4	239.8
389.6	248.3
389.8	256.8
390.0	265.1
390.2	273.8
390.4	282.7
390.6	291.3
390.8	299.9
391.0	309.6
391.2	320.0
391.4	330.4
391.6	341.2
391.8	350.9
392.0	360.6
392.2	371.4
392.4	382.3
392.6	393.0
392.8	405.2
393.0	417.8
393.2	430.7
393.4	443.1
393.6	455.2
393.8	468.0
394.0	481.7
394.2	496.2
394.4	511.6
394.6	526.1
394.8	541.0
395.0	556.8
395.2	572.5
395.4	589.2
395.6	606.7
395.8	624.0
396.0	641.6
396.2	659.5
396.4	676.3
396.6	694.2
396.8	711.1
397.0	730.3
397.2	750.4
397.4	771.6
397.6	792.8
397.8	813.9
398.0	834.0
398.2	855.3
398.4	875.1
398.6	896.3
398.8	917.7
399.0	940.9
399.2	964.3
399.4	988.7
399.6	1012
399.8	1036
400.0	1061
400.2	1088
400.4	1115
400.6	1142
400.8	1168
401.0	1195
401.2	1223
401.4	1252
401.6	1281
401.8	1309
402.0	1338
402.2	1368
402.4	1397
402.6	1426
402.8	1454
403.0	1482
403.2	1513
403.4	1544
403.6	1574
403.8	1604
404.0	1635
404.2	1666
404.4	1699
404.6	1731
404.8	1762
405.0	1797
405.2	1832
405.4	1868
405.6	1903
405.8	1937
406.0	1970
406.2	2005
406.4	2039
406.6	2075
406.8	2112
407.0	2149
407.2	2188
407.4	2226
407.6	2259
407.8	2292
408.0	2326
408.2	2361
408.4	2399
408.6	2436
408.8	2472
409.0	2511
409.2	2551
409.4	2590
409.6	2627
409.8	2665
410.0	2699
410.2	2739
410.4	2779
410.6	2819
410.8	2860
411.0	2900
411.2	2935
411.4	2975
411.6	3015
411.8	3057
412.0	3099
412.2	3133
412.4	3163
412.6	3197
412.8	3234
413.0	3274
413.2	3316
413.4	3354
413.6	3392
413.8	3433
414.0	3472
414.2	3510
414.4	3548
414.6	3586
414.8	3626
415.0	3667
415.2	3709
415.4	3749
415.6	3789
415.8	3828
416.0	3862
416.2	3900
416.4	3939
416.6	3978
416.8	4012
417.0	4046
417.2	4076
417.4	4110
417.6	4146
417.8	4183
418.0	4217
418.2	4253
418.4	4289
418.6	4324
418.8	4360
419.0	4397
419.2	4435
419.4	4474
419.6	4509
419.8	4546
420.0	4579
420.2	4616
420.4	4653
420.6	4687
420.8	4716
421.0	4750
421.2	4780
421.4	4817
421.6	4850
421.8	4884
422.0	4914
422.2	4944
422.4	4975
422.6	5009
422.8	5040
423.0	5074
423.2	5104
423.4	5135
423.6	5168
423.8	5196
424.0	5223
424.2	5246
424.4	5274
424.6	5304
424.8	5337
425.0	5374
425.2	5402
425.4	5426
425.6	5455
425.8	5481
426.0	5513
426.2	5549
426.4	5580
426.6	5606
426.8	5629
427.0	5652
427.2	5673
427.4	5693
427.6	5716
427.8	5738
428.0	5760
428.2	5789
428.4	5813
428.6	5837
428.8	5864
429.0	5889
429.2	5915
429.4	5940
429.6	5960
429.8	5980
430.0	5998
430.2	6023
430.4	6048
430.6	6068
430.8	6084
431.0	6101
431.2	6119
431.4	6146
431.6	6165
431.8	6182
432.0	6197
432.2	6216
432.4	6237
432.6	6257
432.8	6270
433.0	6292
433.2	6308
433.4	6322
433.6	6335
433.8	6352
434.0	6371
434.2	6400
434.4	6414
434.6	6421
434.8	6426
435.0	6439
435.2	6457
435.4	6475
435.6	6494
435.8	6501
436.0	6511
436.2	6520
436.4	6533
436.6	6541
436.8	6558
437.0	6566
437.2	6583
437.4	6600
437.6	6615
437.8	6618
438.0	6620
438.2	6620
438.4	6626
438.6	6636
438.8	6651
439.0	6668
439.2	6678
439.4	6687
439.6	6689
439.8	6685
440.0	6686
440.2	6698
440.4	6706
440.6	6720
440.8	6725
441.0	6733
441.2	6732
441.4	6741
441.6	6744
441.8	6746
442.0	6743
442.2	6742
442.4	6742
442.6	6746
442.8	6750
443.0	6746
443.2	6749
443.4	6746
443.6	6750
443.8	6752
444.0	6754
444.2	6753
444.4	6758
444.6	6761
444.8	6764
445.0	6763
445.2	6755
445.4	6748
445.6	6743
445.8	6747
446.0	6748
446.2	6745
446.4	6739
446.6	6735
446.8	6731
447.0	6727
447.2	6724
447.4	6720
447.6	6722
447.8	6722
448.0	6715
448.2	6705
448.4	6702
448.6	6697
448.8	6694
449.0	6687
449.2	6677
449.4	6668
449.6	6668
449.8	6661
450.0	6658
450.2	6651
450.4	6647
450.6	6646
450.8	6643
451.0	6632
451.2	6621
451.4	6608
451.6	6603
451.8	6603
452.0	6599
452.2	6592
452.4	6573
452.6	6557
452.8	6545
453.0	6537
453.2	6534
453.4	6532
453.6	6524
453.8	6519
454.0	6507
454.2	6496
454.4	6483
454.6	6479
454.8	6471
455.0	6461
455.2	6452
455.4	6439
455.6	6431
455.8	6426
456.0	6416
456.2	6400
456.4	6385
456.6	6363
456.8	6351
457.0	6346
457.2	6341
457.4	6334
457.6	6328
457.8	6315
458.0	6304
458.2	6294
458.4	6272
458.6	6251
458.8	6242
459.0	6228
459.2	6217
459.4	6202
459.6	6183
459.8	6162
460.0	6154
460.2	6142
460.4	6134
460.6	6123
460.8	6110
461.0	6097
461.2	6082
461.4	6069
461.6	6055
461.8	6036
462.0	6018
462.2	6006
462.4	5989
462.6	5974
462.8	5956
463.0	5942
463.2	5930
463.4	5920
463.6	5907
463.8	5891
464.0	5876
464.2	5861
464.4	5842
464.6	5826
464.8	5809
465.0	5792
465.2	5780
465.4	5764
465.6	5750
465.8	5738
466.0	5721
466.2	5701
466.4	5677
466.6	5655
466.8	5641
467.0	5627
467.2	5614
467.4	5603
467.6	5582
467.8	5565
468.0	5550
468.2	5533
468.4	5516
468.6	5499
468.8	5480
469.0	5463
469.2	5445
469.4	5424
469.6	5406
469.8	5387
470.0	5372
470.2	5358
470.4	5342
470.6	5317
470.8	5303
471.0	5288
471.2	5275
471.4	5265
471.6	5253
471.8	5226
472.0	5200
472.2	5176
472.4	5156
472.6	5142
472.8	5129
473.0	5110
473.2	5089
473.4	5073
473.6	5054
473.8	5037
474.0	5018
474.2	5000
474.4	4983
474.6	4969
474.8	4950
475.0	4935
475.2	4916
475.4	4894
475.6	4873
475.8	4855
476.0	4838
476.2	4825
476.4	4806
476.6	4787
476.8	4772
477.0	4759
477.2	4743
477.4	4726
477.6	4704
477.8	4686
478.0	4675
478.2	4663
478.4	4647
478.6	4631
478.8	4611
479.0	4589
479.2	4572
479.4	4552
479.6	4537
479.8	4527
480.0	4516
480.2	4500
480.4	4487
480.6	4465
480.8	4445
481.0	4429
481.2	4413
481.4	4397
481.6	4381
481.8	4362
482.0	4345
482.2	4330
482.4	4313
482.6	4297
482.8	4276
483.0	4258
483.2	4241
483.4	4229
483.6	4215
483.8	4198
484.0	4181
484.2	4162
484.4	4142
484.6	4130
484.8	4116
485.0	4099
485.2	4084
485.4	4062
485.6	4045
485.8	4033
486.0	4020
486.2	4006
486.4	3992
486.6	3973
486.8	3958
487.0	3939
487.2	3922
487.4	3908
487.6	3892
487.8	3875
488.0	3858
488.2	3841
488.4	3827
488.6	3815
488.8	3800
489.0	3784
489.2	3767
489.4	3752
489.6	3739
489.8	3722
490.0	3705
490.2	3684
490.4	3669
490.6	3656
490.8	3641
491.0	3624
491.2	3605
491.4	3587
491.6	3572
491.8	3558
492.0	3543
492.2	3527
492.4	3512
492.6	3497
492.8	3482
493.0	3467
493.2	3448
493.4	3430
493.6	3415
493.8	3399
494.0	3386
494.2	3371
494.4	3354
494.6	3340
494.8	3322
495.0	3304
495.2	3286
495.4	3271
495.6	3257
495.8	3243
496.0	3227
496.2	3210
496.4	3192
496.6	3179
496.8	3165
497.0	3154
497.2	3140
497.4	3123
497.6	3105
497.8	3089
498.0	3071
498.2	3058
498.4	3048
498.6	3032
498.8	3012
499.0	2994
499.2	2976
499.4	2963
499.6	2952
499.8	2935
500.0	2919
500.2	2904
500.4	2891
500.6	2876
500.8	2863
501.0	2847
501.2	2831
501.4	2816
501.6	2802
501.8	2785
502.0	2769
502.2	2755
502.4	2743
502.6	2729
502.8	2715
503.0	2701
503.2	2686
503.4	2671
503.6	2660
503.8	2644
504.0	2628
504.2	2616
504.4	2604
504.6	2591
504.8	2579
505.0	2562
505.2	2544
505.4	2529
505.6	2514
505.8	2503
506.0	2491
506.2	2478
506.4	2464
506.6	2450
506.8	2436
507.0	2422
507.2	2406
507.4	2392
507.6	2379
507.8	2367
508.0	2353
508.2	2340
508.4	2327
508.6	2316
508.8	2305
509.0	2296
509.2	2284
509.4	2270
509.6	2256
509.8	2240
510.0	2226
510.2	2213
510.4	2203
510.6	2190
510.8	2177
511.0	2166
511.2	2155
511.4	2140
511.6	2127
511.8	2113
512.0	2098
512.2	2087
512.4	2076
512.6	2065
512.8	2053
513.0	2041
513.2	2030
513.4	2020
513.6	2010
513.8	1999
514.0	1988
514.2	1974
514.4	1962
514.6	1951
514.8	1940
515.0	1931
515.2	1922
515.4	1909
515.6	1897
515.8	1882
516.0	1869
516.2	1858
516.4	1849
516.6	1841
516.8	1831
517.0	1820
517.2	1808
517.4	1797
517.6	1786
517.8	1778
518.0	1768
518.2	1758
518.4	1746
518.6	1735
518.8	1724
519.0	1713
519.2	1704
519.4	1694
519.6	1684
519.8	1674
520.0	1664
520.2	1652
520.4	1644
520.6	1634
520.8	1622
521.0	1613
521.2	1604
521.4	1594
521.6	1586
521.8	1577
522.0	1567
522.2	1558
522.4	1549
522.6	1539
522.8	1529
523.0	1520
523.2	1513
523.4	1504
523.6	1496
523.8	1487
524.0	1476
524.2	1467
524.4	1457
524.6	1446
524.8	1437
525.0	1431
525.2	1423
525.4	1414
525.6	1404
525.8	1393
526.0	1384
526.2	1377
526.4	1368
526.6	1360
526.8	1353
527.0	1345
527.2	1337
527.4	1329
527.6	1320
527.8	1313
528.0	1305
528.2	1296
528.4	1288
528.6	1279
528.8	1271
529.0	1263
529.2	1257
529.4	1250
529.6	1243
529.8	1235
530.0	1228
530.2	1220
530.4	1213
530.6	1205
530.8	1197
531.0	1188
531.2	1181
531.4	1173
531.6	1166
531.8	1158
532.0	1152
532.2	1145
532.4	1138
532.6	1133
532.8	1129
533.0	1122
533.2	1115
533.4	1107
533.6	1099
533.8	1091
534.0	1086
534.2	1078
534.4	1070
534.6	1062
534.8	1056
535.0	1049
535.2	1043
535.4	1036
535.6	1029
535.8	1022
536.0	1017
536.2	1011
536.4	1003
536.6	996.6
536.8	990.9
537.0	985.3
537.2	979.9
537.4	973.5
537.6	966.6
537.8	961.0
538.0	955.1
538.2	950.3
538.4	946.3
538.6	940.0
538.8	932.4
539.0	926.6
539.2	919.6
539.4	913.0
539.6	908.0
539.8	901.8
540.0	895.4
540.2	890.1
540.4	884.7
540.6	878.1
540.8	872.6
541.0	866.7
541.2	862.1
541.4	857.0
541.6	852.8
541.8	847.6
542.0	842.5
542.2	835.9
542.4	830.9
542.6	824.2
542.8	818.3
543.0	812.6
543.2	808.0
543.4	803.1
543.6	798.9
543.8	794.3
544.0	789.4
544.2	784.0
544.4	779.1
544.6	773.6
544.8	767.7
545.0	763.6
545.2	759.3
545.4	754.7
545.6	749.2
545.8	744.0
546.0	738.3
546.2	733.6
546.4	729.0
546.6	724.4
546.8	719.3
547.0	715.1
547.2	711.1
547.4	706.9
547.6	702.0
547.8	697.0
548.0	691.4
548.2	687.4
548.4	683.8
548.6	678.5
548.8	672.5
549.0	667.8
549.2	662.6
549.4	658.6
549.6	656.4
549.8	652.1
550.0	646.7
550.2	643.1
550.4	638.4
550.6	633.2
550.8	630.2
551.0	625.5
551.2	620.8
551.4	617.4
551.6	613.6
551.8	608.6
552.0	604.5
552.2	600.0
552.4	596.1
552.6	592.9
552.8	590.1
553.0	586.3
553.2	583.1
553.4	579.1
553.6	575.0
553.8	570.6
554.0	566.4
554.2	562.0
554.4	559.0
554.6	555.8
554.8	552.1
555.0	548.5
555.2	544.7
555.4	541.7
555.6	539.3
555.8	536.0
556.0	531.0
556.2	526.2
556.4	521.9
556.6	518.8
556.8	516.2
557.0	513.3
557.2	510.9
557.4	508.5
557.6	504.9
557.8	500.5
558.0	496.9
558.2	493.4
558.4	491.3
558.6	488.7
558.8	485.5
559.0	481.5
559.2	478.1
559.4	474.9
559.6	472.0
559.8	469.3
560.0	466.4
560.2	461.8
560.4	457.7
560.6	454.4
560.8	452.2
561.0	450.3
561.2	447.4
561.4	443.9
561.6	439.4
561.8	435.9
562.0	433.4
562.2	431.2
562.4	428.8
562.6	426.5
562.8	423.2
563.0	420.9
563.2	418.7
563.4	416.7
563.6	413.7
563.8	410.1
564.0	407.6
564.2	405.0
564.4	402.3
564.6	399.1
564.8	395.5
565.0	392.2
565.2	390.5
565.4	388.2
565.6	386.3
565.8	383.2
566.0	380.6
566.2	377.8
566.4	375.7
566.6	373.6
566.8	371.5
567.0	369.5
567.2	366.8
567.4	363.5
567.6	360.5
567.8	357.4
568.0	355.1
568.2	353.3
568.4	351.4
568.6	349.5
568.8	347.2
569.0	344.5
569.2	342.6
569.4	340.1
569.6	338.3
569.8	336.3
570.0	333.6
570.2	330.6
570.4	328.1
570.6	325.9
570.8	324.1
571.0	321.6
571.2	319.6
571.4	317.5
571.6	316.1
571.8	314.7
572.0	313.1
572.2	310.2
572.4	307.7
572.6	305.1
572.8	303.3
573.0	301.0
573.2	299.0
573.4	296.8
573.6	294.6
573.8	292.3
574.0	291.2
574.2	289.3
574.4	287.7
574.6	285.1
574.8	282.7
575.0	280.3
575.2	278.5
575.4	276.2
575.6	274.2
575.8	272.2
576.0	271.1
576.2	269.7
576.4	268.8
576.6	266.4
576.8	264.7
577.0	262.5
577.2	260.3
577.4	257.8
577.6	256.3
577.8	254.7
578.0	254.2
578.2	253.2
578.4	251.7
578.6	249.8
578.8	247.6
579.0	246.0
579.2	244.5
579.4	242.6
579.6	241.5
579.8	240.2
580.0	238.6
580.2	237.0
580.4	235.5
580.6	233.3
580.8	231.6
581.0	229.5
581.2	227.7
581.4	225.7
581.6	225.2
581.8	224.5
582.0	223.4
582.2	221.8
582.4	220.3
582.6	218.3
582.8	217.1
583.0	215.6
583.2	213.8
583.4	212.0
583.6	211.4
583.8	210.3
584.0	209.2
584.2	207.6
584.4	206.1
584.6	204.3
584.8	203.1
585.0	201.6
585.2	200.3
585.4	198.4
585.6	197.0
585.8	195.5
586.0	194.0
586.2	192.8
586.4	192.2
586.6	191.4
586.8	190.6
587.0	189.8
587.2	188.3
587.4	186.1
587.6	184.7
587.8	183.6
588.0	182.9
588.2	182.4
588.4	181.0
588.6	179.2
588.8	177.6
589.0	176.2
589.2	174.8
589.4	174.0
589.6	173.2
589.8	172.1
590.0	170.7
590.2	169.2
590.4	168.0
590.6	166.7
590.8	165.9
591.0	164.6
591.2	163.3
591.4	162.2
591.6	161.3
591.8	160.5
592.0	159.5
592.2	158.3
592.4	157.2
592.6	156.4
592.8	155.1
593.0	154.3
593.2	152.8
593.4	152.0
593.6	151.0
593.8	150.5
594.0	149.5
594.2	148.7
594.4	147.4
594.6	146.6
594.8	145.5
595.0	144.6
595.2	143.6
595.4	142.9
595.6	141.8
595.8	141.2
596.0	140.5
596.2	139.9
596.4	138.9
596.6	137.8
596.8	136.2
597.0	134.8
597.2	133.9
597.4	133.1
597.6	132.2
597.8	131.7
598.0	130.8
598.2	130.3
598.4	129.5
598.6	128.8
598.8	127.7
599.0	126.7
599.2	125.9
599.4	125.3
599.6	124.2
599.8	123.8
600.0	122.7
600.2	121.5
600.4	120.3
600.6	119.7
600.8	118.5
601.0	117.6
601.2	117.0
601.4	116.3
601.6	115.8
601.8	115.5
602.0	114.5
602.2	113.3
602.4	112.6
602.6	111.7
602.8	111.2
603.0	110.7
603.2	109.7
603.4	109.0
603.6	108.3
603.8	107.7
604.0	107.1
604.2	106.6
604.4	105.7
604.6	105.2
604.8	104.3
605.0	103.5
605.2	102.8
605.4	102.3
605.6	101.5
605.8	100.9
606.0	100.1
606.2	99.17
606.4	98.64
606.6	98.28
606.8	97.91
607.0	97.41
607.2	96.73
607.4	95.83
607.6	95.08
607.8	94.31
608.0	93.63
608.2	93.07
608.4	92.46
608.6	91.68
608.8	90.89
609.0	90.33
609.2	89.73
609.4	89.21
609.6	88.46
609.8	87.83
610.0	87.22
610.2	86.78
610.4	86.03
610.6	85.46
610.8	84.82
611.0	84.46
611.2	83.91
611.4	83.26
611.6	82.21
611.8	81.84
612.0	81.62
612.2	81.42
612.4	80.99
612.6	80.36
612.8	79.87
613.0	79.34
613.2	78.78
613.4	77.86
613.6	77.00
613.8	76.25
614.0	75.83
614.2	75.51
614.4	75.23
614.6	74.57
614.8	73.91
615.0	73.32
615.2	72.89
615.4	72.70
615.6	72.38
615.8	71.67
616.0	71.18
616.2	70.99
616.4	70.85
616.6	70.48
616.8	69.88
617.0	69.08
617.2	68.46
617.4	67.93
617.6	67.75
617.8	67.23
618.0	66.49
618.2	65.97
618.4	65.36
618.6	65.00
618.8	64.92
619.0	64.45
619.2	63.59
619.4	62.97
619.6	62.52
619.8	62.19
620.0	61.84
620.2	61.32
620.4	60.76
620.6	60.41
620.8	60.25
621.0	60.03
621.2	59.72
621.4	59.05
621.6	58.47
621.8	57.99
622.0	57.77
622.2	57.33
622.4	57.03
622.6	56.44
622.8	55.96
623.0	55.75
623.2	55.52
623.4	54.99
623.6	54.98
623.8	54.54
624.0	54.05
624.2	53.66
624.4	53.17
624.6	52.73
624.8	52.58
625.0	52.29
625.2	51.81
625.4	51.23
625.6	50.98
625.8	50.60
626.0	50.15
626.2	49.77
626.4	49.41
626.6	49.00
626.8	48.85
627.0	48.47
627.2	48.03
627.4	47.80
627.6	47.52
627.8	47.39
628.0	47.23
628.2	46.89
628.4	46.41
628.6	46.23
628.8	45.99
629.0	45.74
629.2	45.27
629.4	44.68
629.6	44.14
629.8	43.93
630.0	43.69
630.2	43.41
630.4	43.13
630.6	42.64
630.8	42.58
631.0	42.43
631.2	42.06
631.4	41.71
631.6	41.41
631.8	40.96
632.0	40.64
632.2	40.39
632.4	40.07
632.6	39.55
632.8	39.29
633.0	39.31
633.2	39.13
633.4	38.85
633.6	38.42
633.8	37.99
634.0	37.78
634.2	37.69
634.4	37.59
634.6	37.48
634.8	37.21
635.0	37.11
635.2	36.99
635.4	36.66
635.6	36.07
635.8	35.89
636.0	35.38
636.2	35.09
636.4	35.02
636.6	34.81
636.8	34.57
637.0	34.48
637.2	34.14
637.4	33.79
637.6	33.64
637.8	33.44
638.0	33.33
638.2	32.97
638.4	32.49
638.6	32.06
638.8	31.94
639.0	31.98
639.2	32.01
639.4	31.92
639.6	31.66
639.8	31.36
640.0	30.94
640.2	30.77
640.4	30.61
640.6	30.34
640.8	30.23
641.0	29.97
641.2	29.47
641.4	29.44
641.6	29.28
641.8	29.07
642.0	28.99
642.2	28.63
642.4	28.28
642.6	28.15
642.8	27.95
643.0	27.86
643.2	27.61
643.4	27.43
643.6	27.26
643.8	27.10
644.0	27.09
644.2	26.96
644.4	26.60
644.6	26.40
644.8	26.05
645.0	25.83
645.2	25.85
645.4	25.85
645.6	25.70
645.8	25.45
646.0	25.20
646.2	24.87
646.4	24.61
646.6	24.46
646.8	24.38
647.0	24.22
647.2	24.15
647.4	23.96
647.6	23.72
647.8	23.44
648.0	23.11
648.2	22.99
648.4	22.84
648.6	22.93
648.8	23.01
649.0	23.03
649.2	22.78
649.4	22.61
649.6	22.30
649.8	22.13
650.0	21.76
650.2	21.66
650.4	21.47
650.6	21.43
650.8	21.42
651.0	21.38
651.2	21.04
651.4	20.90
651.6	20.69
651.8	20.63
652.0	20.53
652.2	20.53
652.4	20.36
652.6	20.22
652.8	19.94
653.0	19.76
653.2	19.58
653.4	19.41
653.6	19.44
653.8	19.40
654.0	19.22
654.2	19.22
654.4	19.05
654.6	18.80
654.8	18.72
655.0	18.40
655.2	18.23
655.4	18.13
655.6	17.83
655.8	17.69
656.0	17.70
656.2	17.63
656.4	17.66
656.6	17.63
656.8	17.43
657.0	17.34
657.2	17.29
657.4	17.09
657.6	16.88
657.8	16.81
658.0	16.65
658.2	16.67
658.4	16.57
658.6	16.46
658.8	16.22
659.0	16.18
659.2	16.06
659.4	15.96
659.6	15.89
659.8	15.80
660.0	15.51
660.2	15.32
660.4	15.09
660.6	14.92
660.8	14.97
661.0	14.95
661.2	14.97
661.4	14.96
661.6	14.78
661.8	14.77
662.0	14.73
662.2	14.59
662.4	14.49
662.6	14.26
662.8	14.06
663.0	14.03
663.2	13.96
663.4	13.96
663.6	13.95
663.8	13.79
664.0	13.88
664.2	13.73
664.4	13.53
664.6	13.42
664.8	13.22
665.0	13.07
665.2	13.04
665.4	12.96
665.6	12.91
665.8	13.03
666.0	12.98
666.2	12.89
666.4	12.72
666.6	12.65
666.8	12.60
667.0	12.69
667.2	12.54
667.4	12.34
667.6	12.14
667.8	12.07
668.0	12.07
668.2	11.96
668.4	11.89
668.6	11.74
668.8	11.65
669.0	11.64
669.2	11.62
669.4	11.54
669.6	11.58
669.8	11.55
670.0	11.53
670.2	11.42
670.4	11.27
670.6	11.15
670.8	10.95
671.0	10.97
671.2	10.91
671.4	10.90
671.6	10.87
671.8	10.81
672.0	10.69
672.2	10.72
672.4	10.57
672.6	10.38
672.8	10.21
673.0	10.05
673.2	9.938
673.4	9.962
673.6	10.07
673.8	10.06
674.0	10.08
674.2	10.07
674.4	9.955
674.6	9.859
674.8	9.900
675.0	9.793
675.2	9.750
675.4	9.723
675.6	9.590
675.8	9.452
676.0	9.381
676.2	9.334
676.4	9.290
676.6	9.296
676.8	9.231
677.0	9.081
677.2	9.003
677.4	9.008
677.6	8.910
677.8	8.783
678.0	8.789
678.2	8.706
678.4	8.737
678.6	8.749
678.8	8.689
679.0	8.546
679.2	8.547
679.4	8.418
679.6	8.324
679.8	8.246
680.0	8.196

