Sample:	'20211010A(EM)
File name:	B-CDS 6 600uM.FDS
Run date:	'09:34:43, 06/08/2023
Operator:	Administrator
Comment:	'

Instrument
Model:	F-4700 FL Spectrophotometer
Serial number:	2019-001
ROM Version:	5J24010 00

Instrument parameters
Measurement type:	Wavelength scan
Scan mode:	Emission
Data mode:	Fluorescence
EX WL:	350.0 nm
EM  Start WL:	370.0 nm
EM  End WL:	680.0 nm
Scan speed:	1200 nm/min
Delay:	0.0 s
EX Slit:	10.0 nm
EM Slit:	10.0 nm
PMT Voltage:	520 V
Response:	0.002 s
Corrected spectra:	Off
Shutter control:	On

Processing performed
Savitsky-Golay smoothed
Smoothing order:	3
Number of points:	7
Number of times:	1

Peak integration
Integration method:	Rectangular
Sensitivity:	1
Threshold:	1.000

Peaks
No.	Start(nm)	Apex(nm)	End(nm)	Height(Data)	Valley(nm)	Valley(Data)
1	370.0	371.8	372.8	10.65	372.8	9.379
2	372.8	471.0	472.0	7103	472.0	7090
3	472.0	474.0	476.2	7147	476.2	7120
4	476.2	476.8	480.0	7134	480.0	7075
5	480.0	480.8	659.2	7112	659.2	78.78
6	659.2	660.0	674.6	82.70	674.6	47.11
7	674.6	675.8	680.0	49.07	680.0	43.50

Data points
nm	Data
370.0	10.27
370.2	9.857
370.4	9.487
370.6	9.187
370.8	8.727
371.0	9.235
371.2	9.456
371.4	9.960
371.6	10.56
371.8	10.65
372.0	10.10
372.2	9.899
372.4	9.506
372.6	9.379
372.8	9.379
373.0	9.716
373.2	9.958
373.4	9.979
373.6	10.52
373.8	10.56
374.0	10.26
374.2	10.31
374.4	9.989
374.6	9.966
374.8	10.28
375.0	10.47
375.2	10.93
375.4	11.35
375.6	11.62
375.8	11.72
376.0	11.44
376.2	11.28
376.4	11.48
376.6	11.51
376.8	11.62
377.0	11.71
377.2	11.46
377.4	11.68
377.6	11.94
377.8	11.96
378.0	12.38
378.2	12.70
378.4	12.58
378.6	13.41
378.8	13.05
379.0	13.14
379.2	13.16
379.4	12.99
379.6	12.63
379.8	13.68
380.0	13.95
380.2	14.50
380.4	14.70
380.6	15.24
380.8	14.59
381.0	15.27
381.2	15.56
381.4	15.79
381.6	15.85
381.8	16.39
382.0	16.55
382.2	17.13
382.4	17.23
382.6	17.29
382.8	16.80
383.0	16.81
383.2	17.17
383.4	18.22
383.6	19.08
383.8	19.85
384.0	19.85
384.2	20.30
384.4	20.52
384.6	21.27
384.8	21.78
385.0	22.70
385.2	23.01
385.4	23.62
385.6	23.80
385.8	23.79
386.0	24.96
386.2	25.91
386.4	26.91
386.6	27.74
386.8	28.48
387.0	29.21
387.2	30.23
387.4	29.96
387.6	30.76
387.8	31.30
388.0	32.77
388.2	33.83
388.4	35.22
388.6	36.56
388.8	37.46
389.0	37.92
389.2	39.58
389.4	40.40
389.6	42.39
389.8	43.65
390.0	44.09
390.2	45.39
390.4	47.23
390.6	48.75
390.8	50.72
391.0	52.44
391.2	54.13
391.4	56.85
391.6	57.75
391.8	59.22
392.0	61.22
392.2	64.14
392.4	66.43
392.6	69.06
392.8	70.17
393.0	72.44
393.2	74.60
393.4	77.40
393.6	80.43
393.8	83.64
394.0	85.61
394.2	87.81
394.4	90.73
394.6	93.57
394.8	97.75
395.0	103.7
395.2	107.4
395.4	110.3
395.6	114.5
395.8	117.6
396.0	120.9
396.2	126.1
396.4	132.1
396.6	135.5
396.8	139.7
397.0	144.3
397.2	148.9
397.4	154.0
397.6	159.0
397.8	162.9
398.0	165.9
398.2	171.6
398.4	177.8
398.6	185.2
398.8	191.7
399.0	198.2
399.2	206.2
399.4	212.7
399.6	216.7
399.8	224.4
400.0	232.0
400.2	238.3
400.4	248.1
400.6	255.5
400.8	261.2
401.0	270.4
401.2	278.8
401.4	287.3
401.6	297.8
401.8	309.3
402.0	319.8
402.2	330.2
402.4	340.1
402.6	349.6
402.8	359.3
403.0	367.4
403.2	375.6
403.4	383.8
403.6	393.5
403.8	406.5
404.0	420.9
404.2	434.5
404.4	448.2
404.6	459.7
404.8	469.7
405.0	482.7
405.2	497.4
405.4	513.9
405.6	529.5
405.8	542.6
406.0	553.9
406.2	569.4
406.4	585.0
406.6	601.1
406.8	615.7
407.0	629.4
407.2	645.8
407.4	666.1
407.6	683.7
407.8	702.1
408.0	720.9
408.2	737.4
408.4	756.4
408.6	774.6
408.8	790.4
409.0	805.8
409.2	825.1
409.4	847.4
409.6	867.8
409.8	886.5
410.0	904.8
410.2	927.5
410.4	950.3
410.6	977.7
410.8	998.3
411.0	1018
411.2	1039
411.4	1063
411.6	1085
411.8	1108
412.0	1130
412.2	1156
412.4	1178
412.6	1199
412.8	1220
413.0	1241
413.2	1263
413.4	1291
413.6	1318
413.8	1346
414.0	1366
414.2	1394
414.4	1420
414.6	1450
414.8	1481
415.0	1512
415.2	1528
415.4	1556
415.6	1578
415.8	1607
416.0	1639
416.2	1673
416.4	1697
416.6	1725
416.8	1745
417.0	1773
417.2	1800
417.4	1831
417.6	1863
417.8	1902
418.0	1925
418.2	1952
418.4	1973
418.6	2000
418.8	2025
419.0	2063
419.2	2094
419.4	2131
419.6	2162
419.8	2193
420.0	2219
420.2	2252
420.4	2285
420.6	2322
420.8	2358
421.0	2385
421.2	2415
421.4	2445
421.6	2472
421.8	2506
422.0	2544
422.2	2568
422.4	2598
422.6	2629
422.8	2662
423.0	2696
423.2	2730
423.4	2758
423.6	2785
423.8	2812
424.0	2844
424.2	2880
424.4	2910
424.6	2946
424.8	2981
425.0	3010
425.2	3038
425.4	3072
425.6	3099
425.8	3130
426.0	3166
426.2	3195
426.4	3224
426.6	3253
426.8	3284
427.0	3317
427.2	3343
427.4	3373
427.6	3400
427.8	3423
428.0	3450
428.2	3492
428.4	3521
428.6	3565
428.8	3601
429.0	3630
429.2	3649
429.4	3678
429.6	3699
429.8	3729
430.0	3766
430.2	3793
430.4	3827
430.6	3864
430.8	3902
431.0	3935
431.2	3960
431.4	3971
431.6	4001
431.8	4032
432.0	4073
432.2	4113
432.4	4135
432.6	4159
432.8	4195
433.0	4229
433.2	4258
433.4	4286
433.6	4297
433.8	4326
434.0	4356
434.2	4390
434.4	4423
434.6	4458
434.8	4483
435.0	4508
435.2	4522
435.4	4544
435.6	4567
435.8	4594
436.0	4626
436.2	4639
436.4	4654
436.6	4689
436.8	4721
437.0	4753
437.2	4772
437.4	4783
437.6	4792
437.8	4819
438.0	4847
438.2	4881
438.4	4901
438.6	4935
438.8	4942
439.0	4959
439.2	4984
439.4	5008
439.6	5022
439.8	5057
440.0	5066
440.2	5091
440.4	5121
440.6	5155
440.8	5167
441.0	5190
441.2	5200
441.4	5222
441.6	5247
441.8	5275
442.0	5300
442.2	5333
442.4	5344
442.6	5370
442.8	5385
443.0	5399
443.2	5431
443.4	5468
443.6	5495
443.8	5517
444.0	5518
444.2	5525
444.4	5540
444.6	5556
444.8	5576
445.0	5597
445.2	5617
445.4	5641
445.6	5654
445.8	5663
446.0	5677
446.2	5706
446.4	5727
446.6	5749
446.8	5754
447.0	5768
447.2	5797
447.4	5817
447.6	5835
447.8	5834
448.0	5846
448.2	5877
448.4	5895
448.6	5904
448.8	5922
449.0	5912
449.2	5920
449.4	5944
449.6	5954
449.8	5979
450.0	6010
450.2	6033
450.4	6049
450.6	6067
450.8	6074
451.0	6085
451.2	6088
451.4	6105
451.6	6121
451.8	6145
452.0	6166
452.2	6178
452.4	6185
452.6	6194
452.8	6210
453.0	6224
453.2	6244
453.4	6260
453.6	6295
453.8	6318
454.0	6325
454.2	6322
454.4	6332
454.6	6346
454.8	6367
455.0	6393
455.2	6403
455.4	6424
455.6	6453
455.8	6464
456.0	6451
456.2	6454
456.4	6467
456.6	6480
456.8	6500
457.0	6513
457.2	6520
457.4	6547
457.6	6579
457.8	6582
458.0	6587
458.2	6588
458.4	6588
458.6	6604
458.8	6637
459.0	6646
459.2	6650
459.4	6652
459.6	6662
459.8	6667
460.0	6699
460.2	6725
460.4	6738
460.6	6751
460.8	6770
461.0	6758
461.2	6766
461.4	6772
461.6	6775
461.8	6806
462.0	6840
462.2	6850
462.4	6858
462.6	6858
462.8	6854
463.0	6870
463.2	6883
463.4	6888
463.6	6894
463.8	6898
464.0	6894
464.2	6900
464.4	6910
464.6	6922
464.8	6931
465.0	6938
465.2	6942
465.4	6960
465.6	6968
465.8	6976
466.0	6980
466.2	6988
466.4	6994
466.6	7004
466.8	7014
467.0	7012
467.2	7012
467.4	7023
467.6	7034
467.8	7037
468.0	7059
468.2	7049
468.4	7048
468.6	7059
468.8	7055
469.0	7063
469.2	7077
469.4	7077
469.6	7085
469.8	7084
470.0	7074
470.2	7077
470.4	7079
470.6	7088
470.8	7097
471.0	7103
471.2	7098
471.4	7102
471.6	7101
471.8	7100
472.0	7090
472.2	7093
472.4	7096
472.6	7115
472.8	7120
473.0	7119
473.2	7118
473.4	7125
473.6	7136
473.8	7146
474.0	7147
474.2	7134
474.4	7137
474.6	7139
474.8	7143
475.0	7143
475.2	7139
475.4	7131
475.6	7125
475.8	7123
476.0	7128
476.2	7120
476.4	7127
476.6	7133
476.8	7134
477.0	7127
477.2	7119
477.4	7113
477.6	7122
477.8	7121
478.0	7118
478.2	7097
478.4	7080
478.6	7083
478.8	7085
479.0	7088
479.2	7093
479.4	7085
479.6	7095
479.8	7083
480.0	7075
480.2	7080
480.4	7090
480.6	7091
480.8	7112
481.0	7089
481.2	7080
481.4	7073
481.6	7069
481.8	7051
482.0	7061
482.2	7065
482.4	7075
482.6	7069
482.8	7061
483.0	7031
483.2	7017
483.4	7007
483.6	6994
483.8	6992
484.0	6991
484.2	6996
484.4	6998
484.6	6990
484.8	6975
485.0	6976
485.2	6972
485.4	6972
485.6	6972
485.8	6967
486.0	6957
486.2	6946
486.4	6948
486.6	6948
486.8	6931
487.0	6915
487.2	6900
487.4	6877
487.6	6865
487.8	6861
488.0	6838
488.2	6845
488.4	6843
488.6	6838
488.8	6831
489.0	6817
489.2	6800
489.4	6793
489.6	6773
489.8	6773
490.0	6770
490.2	6762
490.4	6761
490.6	6749
490.8	6728
491.0	6711
491.2	6696
491.4	6685
491.6	6694
491.8	6688
492.0	6681
492.2	6647
492.4	6629
492.6	6612
492.8	6609
493.0	6593
493.2	6583
493.4	6564
493.6	6572
493.8	6565
494.0	6558
494.2	6548
494.4	6531
494.6	6517
494.8	6520
495.0	6506
495.2	6484
495.4	6473
495.6	6452
495.8	6426
496.0	6407
496.2	6380
496.4	6353
496.6	6333
496.8	6323
497.0	6313
497.2	6319
497.4	6320
497.6	6305
497.8	6278
498.0	6253
498.2	6227
498.4	6226
498.6	6230
498.8	6200
499.0	6188
499.2	6173
499.4	6155
499.6	6134
499.8	6108
500.0	6062
500.2	6048
500.4	6039
500.6	6030
500.8	6018
501.0	6006
501.2	5969
501.4	5952
501.6	5936
501.8	5921
502.0	5914
502.2	5903
502.4	5867
502.6	5848
502.8	5834
503.0	5832
503.2	5822
503.4	5808
503.6	5785
503.8	5767
504.0	5748
504.2	5740
504.4	5710
504.6	5686
504.8	5660
505.0	5647
505.2	5619
505.4	5613
505.6	5583
505.8	5571
506.0	5548
506.2	5536
506.4	5523
506.6	5515
506.8	5486
507.0	5479
507.2	5450
507.4	5419
507.6	5404
507.8	5376
508.0	5351
508.2	5345
508.4	5334
508.6	5319
508.8	5303
509.0	5282
509.2	5255
509.4	5235
509.6	5216
509.8	5198
510.0	5173
510.2	5152
510.4	5130
510.6	5107
510.8	5105
511.0	5095
511.2	5083
511.4	5065
511.6	5049
511.8	5017
512.0	5001
512.2	4979
512.4	4965
512.6	4947
512.8	4938
513.0	4917
513.2	4905
513.4	4885
513.6	4863
513.8	4849
514.0	4838
514.2	4814
514.4	4803
514.6	4773
514.8	4734
515.0	4715
515.2	4698
515.4	4691
515.6	4676
515.8	4644
516.0	4616
516.2	4596
516.4	4586
516.6	4582
516.8	4555
517.0	4531
517.2	4520
517.4	4517
517.6	4507
517.8	4491
518.0	4471
518.2	4453
518.4	4434
518.6	4424
518.8	4406
519.0	4389
519.2	4372
519.4	4354
519.6	4324
519.8	4300
520.0	4286
520.2	4271
520.4	4251
520.6	4236
520.8	4212
521.0	4197
521.2	4188
521.4	4175
521.6	4154
521.8	4133
522.0	4110
522.2	4106
522.4	4101
522.6	4081
522.8	4052
523.0	4027
523.2	4003
523.4	3991
523.6	3992
523.8	3978
524.0	3966
524.2	3949
524.4	3926
524.6	3902
524.8	3886
525.0	3869
525.2	3856
525.4	3843
525.6	3826
525.8	3816
526.0	3804
526.2	3787
526.4	3771
526.6	3758
526.8	3743
527.0	3729
527.2	3712
527.4	3690
527.6	3665
527.8	3645
528.0	3629
528.2	3622
528.4	3614
528.6	3601
528.8	3583
529.0	3564
529.2	3549
529.4	3541
529.6	3533
529.8	3519
530.0	3507
530.2	3481
530.4	3463
530.6	3443
530.8	3427
531.0	3418
531.2	3413
531.4	3396
531.6	3385
531.8	3366
532.0	3345
532.2	3331
532.4	3326
532.6	3310
532.8	3303
533.0	3285
533.2	3264
533.4	3245
533.6	3239
533.8	3222
534.0	3208
534.2	3198
534.4	3181
534.6	3161
534.8	3146
535.0	3134
535.2	3118
535.4	3101
535.6	3091
535.8	3077
536.0	3063
536.2	3063
536.4	3056
536.6	3032
536.8	3012
537.0	2990
537.2	2972
537.4	2974
537.6	2970
537.8	2956
538.0	2935
538.2	2917
538.4	2899
538.6	2888
538.8	2875
539.0	2860
539.2	2849
539.4	2837
539.6	2827
539.8	2803
540.0	2791
540.2	2783
540.4	2766
540.6	2751
540.8	2738
541.0	2722
541.2	2714
541.4	2712
541.6	2697
541.8	2690
542.0	2677
542.2	2665
542.4	2640
542.6	2623
542.8	2604
543.0	2599
543.2	2591
543.4	2582
543.6	2571
543.8	2562
544.0	2547
544.2	2533
544.4	2516
544.6	2503
544.8	2494
545.0	2489
545.2	2478
545.4	2465
545.6	2449
545.8	2428
546.0	2410
546.2	2398
546.4	2389
546.6	2377
546.8	2365
547.0	2357
547.2	2351
547.4	2337
547.6	2328
547.8	2309
548.0	2293
548.2	2283
548.4	2267
548.6	2248
548.8	2242
549.0	2230
549.2	2222
549.4	2209
549.6	2199
549.8	2190
550.0	2187
550.2	2172
550.4	2156
550.6	2135
550.8	2124
551.0	2114
551.2	2112
551.4	2102
551.6	2087
551.8	2069
552.0	2053
552.2	2042
552.4	2042
552.6	2038
552.8	2027
553.0	2011
553.2	1992
553.4	1977
553.6	1963
553.8	1957
554.0	1944
554.2	1936
554.4	1926
554.6	1917
554.8	1907
555.0	1902
555.2	1895
555.4	1890
555.6	1881
555.8	1869
556.0	1855
556.2	1838
556.4	1825
556.6	1816
556.8	1811
557.0	1802
557.2	1793
557.4	1772
557.6	1765
557.8	1760
558.0	1755
558.2	1752
558.4	1742
558.6	1725
558.8	1722
559.0	1717
559.2	1710
559.4	1705
559.6	1692
559.8	1678
560.0	1671
560.2	1662
560.4	1654
560.6	1641
560.8	1628
561.0	1613
561.2	1600
561.4	1590
561.6	1586
561.8	1574
562.0	1564
562.2	1556
562.4	1546
562.6	1536
562.8	1536
563.0	1527
563.2	1525
563.4	1522
563.6	1514
563.8	1500
564.0	1486
564.2	1469
564.4	1460
564.6	1455
564.8	1455
565.0	1448
565.2	1442
565.4	1435
565.6	1423
565.8	1414
566.0	1408
566.2	1395
566.4	1395
566.6	1392
566.8	1385
567.0	1370
567.2	1355
567.4	1340
567.6	1335
567.8	1333
568.0	1331
568.2	1325
568.4	1316
568.6	1314
568.8	1310
569.0	1306
569.2	1300
569.4	1293
569.6	1284
569.8	1277
570.0	1263
570.2	1252
570.4	1247
570.6	1242
570.8	1239
571.0	1233
571.2	1224
571.4	1218
571.6	1216
571.8	1205
572.0	1195
572.2	1185
572.4	1173
572.6	1169
572.8	1166
573.0	1163
573.2	1158
573.4	1155
573.6	1144
573.8	1142
574.0	1132
574.2	1128
574.4	1124
574.6	1118
574.8	1109
575.0	1104
575.2	1095
575.4	1084
575.6	1081
575.8	1071
576.0	1066
576.2	1060
576.4	1055
576.6	1048
576.8	1048
577.0	1041
577.2	1035
577.4	1029
577.6	1021
577.8	1020
578.0	1018
578.2	1012
578.4	1002
578.6	994.4
578.8	987.0
579.0	982.6
579.2	976.8
579.4	973.7
579.6	962.3
579.8	959.8
580.0	955.0
580.2	946.4
580.4	940.8
580.6	937.3
580.8	930.5
581.0	932.5
581.2	933.1
581.4	933.6
581.6	928.2
581.8	926.3
582.0	912.4
582.2	901.4
582.4	894.2
582.6	889.2
582.8	882.3
583.0	888.1
583.2	884.8
583.4	880.3
583.6	874.8
583.8	868.2
584.0	859.8
584.2	852.2
584.4	845.7
584.6	839.9
584.8	835.8
585.0	829.7
585.2	829.2
585.4	821.6
585.6	818.6
585.8	815.1
586.0	812.2
586.2	799.8
586.4	795.5
586.6	788.3
586.8	785.4
587.0	783.7
587.2	786.5
587.4	781.0
587.6	776.5
587.8	769.6
588.0	763.4
588.2	753.9
588.4	749.6
588.6	742.6
588.8	738.1
589.0	733.6
589.2	733.2
589.4	727.6
589.6	728.4
589.8	727.5
590.0	726.1
590.2	720.1
590.4	716.7
590.6	713.2
590.8	709.8
591.0	703.0
591.2	695.8
591.4	689.2
591.6	684.0
591.8	683.7
592.0	682.9
592.2	676.3
592.4	670.0
592.6	669.7
592.8	666.4
593.0	660.9
593.2	658.3
593.4	651.9
593.6	645.1
593.8	643.9
594.0	639.4
594.2	635.6
594.4	634.7
594.6	631.9
594.8	629.1
595.0	623.3
595.2	619.5
595.4	617.9
595.6	611.9
595.8	609.3
596.0	606.6
596.2	601.6
596.4	602.6
596.6	598.2
596.8	591.3
597.0	590.5
597.2	587.6
597.4	585.0
597.6	586.4
597.8	583.9
598.0	576.7
598.2	575.4
598.4	573.5
598.6	565.7
598.8	558.2
599.0	552.6
599.2	544.1
599.4	544.0
599.6	545.4
599.8	541.9
600.0	538.1
600.2	532.4
600.4	529.0
600.6	526.5
600.8	524.9
601.0	526.1
601.2	524.2
601.4	519.2
601.6	515.2
601.8	508.7
602.0	503.5
602.2	503.8
602.4	504.6
602.6	502.9
602.8	498.4
603.0	490.5
603.2	485.8
603.4	483.8
603.6	483.6
603.8	480.0
604.0	477.4
604.2	475.6
604.4	476.7
604.6	474.0
604.8	470.1
605.0	462.9
605.2	458.8
605.4	457.5
605.6	457.9
605.8	455.4
606.0	453.8
606.2	447.2
606.4	440.6
606.6	433.0
606.8	431.0
607.0	429.9
607.2	431.2
607.4	429.0
607.6	425.2
607.8	420.8
608.0	418.5
608.2	418.6
608.4	417.3
608.6	414.1
608.8	411.7
609.0	409.9
609.2	405.5
609.4	405.1
609.6	400.9
609.8	395.9
610.0	391.4
610.2	388.7
610.4	386.8
610.6	386.5
610.8	386.3
611.0	385.8
611.2	382.6
611.4	380.8
611.6	378.4
611.8	375.3
612.0	373.1
612.2	369.9
612.4	366.1
612.6	363.9
612.8	361.1
613.0	361.3
613.2	361.1
613.4	358.6
613.6	355.5
613.8	350.7
614.0	346.4
614.2	346.7
614.4	346.5
614.6	346.6
614.8	347.2
615.0	344.6
615.2	342.4
615.4	340.9
615.6	337.7
615.8	334.8
616.0	333.9
616.2	333.3
616.4	331.2
616.6	330.1
616.8	326.2
617.0	323.8
617.2	322.9
617.4	322.5
617.6	318.6
617.8	315.2
618.0	310.3
618.2	308.2
618.4	308.4
618.6	307.5
618.8	306.6
619.0	302.6
619.2	300.0
619.4	297.7
619.6	297.3
619.8	294.9
620.0	294.2
620.2	291.5
620.4	287.5
620.6	284.9
620.8	282.7
621.0	278.5
621.2	277.3
621.4	279.2
621.6	279.9
621.8	279.6
622.0	278.0
622.2	273.7
622.4	270.0
622.6	267.6
622.8	266.0
623.0	263.8
623.2	261.7
623.4	261.0
623.6	260.2
623.8	257.6
624.0	256.0
624.2	256.5
624.4	254.2
624.6	252.4
624.8	248.8
625.0	244.6
625.2	243.1
625.4	241.7
625.6	243.3
625.8	243.0
626.0	240.4
626.2	239.9
626.4	237.8
626.6	233.6
626.8	233.1
627.0	231.3
627.2	229.5
627.4	230.1
627.6	228.8
627.8	227.8
628.0	225.4
628.2	223.0
628.4	222.4
628.6	219.6
628.8	219.2
629.0	217.5
629.2	216.6
629.4	215.3
629.6	215.9
629.8	212.3
630.0	211.4
630.2	210.0
630.4	210.3
630.6	208.7
630.8	207.8
631.0	205.0
631.2	203.8
631.4	204.2
631.6	204.6
631.8	201.7
632.0	199.9
632.2	196.9
632.4	196.1
632.6	194.9
632.8	193.5
633.0	190.7
633.2	190.1
633.4	187.6
633.6	187.0
633.8	186.2
634.0	185.4
634.2	184.5
634.4	184.4
634.6	181.7
634.8	181.1
635.0	180.8
635.2	178.6
635.4	179.8
635.6	180.0
635.8	178.6
636.0	177.4
636.2	174.2
636.4	169.1
636.6	170.3
636.8	169.8
637.0	170.6
637.2	169.1
637.4	167.5
637.6	165.6
637.8	165.0
638.0	163.0
638.2	161.9
638.4	159.8
638.6	159.9
638.8	159.2
639.0	159.0
639.2	157.5
639.4	157.7
639.6	158.7
639.8	158.9
640.0	157.4
640.2	155.1
640.4	151.9
640.6	149.8
640.8	149.2
641.0	149.2
641.2	149.6
641.4	148.4
641.6	147.0
641.8	144.6
642.0	141.6
642.2	141.2
642.4	142.0
642.6	140.5
642.8	139.7
643.0	136.8
643.2	135.3
643.4	135.9
643.6	137.1
643.8	135.1
644.0	133.5
644.2	130.8
644.4	130.2
644.6	130.8
644.8	132.2
645.0	131.8
645.2	131.3
645.4	131.4
645.6	128.5
645.8	125.9
646.0	123.7
646.2	121.3
646.4	121.0
646.6	122.7
646.8	122.3
647.0	122.3
647.2	120.7
647.4	120.1
647.6	120.0
647.8	120.4
648.0	117.5
648.2	115.4
648.4	112.7
648.6	112.6
648.8	113.4
649.0	115.2
649.2	114.9
649.4	114.8
649.6	112.7
649.8	111.7
650.0	109.8
650.2	108.9
650.4	108.5
650.6	108.5
650.8	107.4
651.0	107.4
651.2	106.4
651.4	105.0
651.6	104.1
651.8	103.8
652.0	104.3
652.2	103.9
652.4	103.2
652.6	101.6
652.8	100.9
653.0	100.1
653.2	101.1
653.4	98.99
653.6	97.90
653.8	95.41
654.0	95.32
654.2	94.96
654.4	96.90
654.6	95.74
654.8	94.11
655.0	91.88
655.2	91.54
655.4	91.30
655.6	92.96
655.8	93.61
656.0	93.24
656.2	93.93
656.4	92.64
656.6	90.64
656.8	89.12
657.0	86.93
657.2	85.96
657.4	85.78
657.6	85.11
657.8	86.54
658.0	86.92
658.2	85.36
658.4	84.13
658.6	83.07
658.8	81.23
659.0	80.20
659.2	78.78
659.4	78.97
659.6	80.30
659.8	81.73
660.0	82.70
660.2	81.62
660.4	79.78
660.6	78.61
660.8	77.48
661.0	76.16
661.2	76.94
661.4	76.81
661.6	75.87
661.8	75.56
662.0	74.91
662.2	75.09
662.4	76.33
662.6	75.55
662.8	73.31
663.0	71.57
663.2	69.39
663.4	68.58
663.6	68.76
663.8	69.01
664.0	69.71
664.2	70.30
664.4	69.95
664.6	68.81
664.8	67.45
665.0	67.25
665.2	68.05
665.4	67.25
665.6	66.21
665.8	65.42
666.0	65.28
666.2	65.78
666.4	66.68
666.6	65.58
666.8	64.13
667.0	63.94
667.2	63.40
667.4	63.54
667.6	64.23
667.8	63.69
668.0	62.55
668.2	62.37
668.4	61.79
668.6	61.78
668.8	61.02
669.0	59.16
669.2	58.64
669.4	58.65
669.6	58.99
669.8	59.55
670.0	59.16
670.2	58.21
670.4	58.50
670.6	57.68
670.8	57.98
671.0	58.00
671.2	57.80
671.4	56.09
671.6	54.39
671.8	53.06
672.0	53.07
672.2	52.93
672.4	53.59
672.6	53.01
672.8	52.20
673.0	52.98
673.2	53.19
673.4	52.00
673.6	53.01
673.8	52.05
674.0	49.90
674.2	49.35
674.4	48.63
674.6	47.11
674.8	48.21
675.0	48.08
675.2	47.49
675.4	48.33
675.6	48.82
675.8	49.07
676.0	48.55
676.2	48.39
676.4	46.90
676.6	46.96
676.8	46.60
677.0	45.55
677.2	44.64
677.4	45.39
677.6	44.84
677.8	45.73
678.0	45.88
678.2	45.40
678.4	44.80
678.6	44.50
678.8	43.71
679.0	43.61
679.2	42.81
679.4	42.30
679.6	41.37
679.8	41.48
680.0	43.50

