Sample:	'20211010A(EM)
File name:	B-CDS 6.FDS
Run date:	'09:32:28, 06/08/2023
Operator:	Administrator
Comment:	'

Instrument
Model:	F-4700 FL Spectrophotometer
Serial number:	2019-001
ROM Version:	5J24010 00

Instrument parameters
Measurement type:	Wavelength scan
Scan mode:	Emission
Data mode:	Fluorescence
EX WL:	350.0 nm
EM  Start WL:	370.0 nm
EM  End WL:	680.0 nm
Scan speed:	1200 nm/min
Delay:	0.0 s
EX Slit:	10.0 nm
EM Slit:	10.0 nm
PMT Voltage:	520 V
Response:	0.002 s
Corrected spectra:	Off
Shutter control:	On

Processing performed
Savitsky-Golay smoothed
Smoothing order:	3
Number of points:	7
Number of times:	1

Peak integration
Integration method:	Rectangular
Sensitivity:	1
Threshold:	1.000

Peaks
No.	Start(nm)	Apex(nm)	End(nm)	Height(Data)	Valley(nm)	Valley(Data)
1	370.0	376.8	377.8	3.668	377.8	2.579
2	377.8	488.8	489.8	2347	489.8	2342
3	489.8	491.4	493.8	2371	493.8	2350
4	493.8	494.4	501.8	2373	501.8	2266
5	501.8	502.4	657.8	2278	657.8	48.45
6	657.8	658.6	663.4	51.21	663.4	39.95
7	663.4	664.2	669.4	42.06	669.4	32.81
8	669.4	670.2	678.4	34.66	678.4	25.25

Data points
nm	Data
370.0	2.669
370.2	2.682
370.4	2.672
370.6	2.642
370.8	2.611
371.0	2.383
371.2	2.509
371.4	2.623
371.6	2.688
371.8	2.779
372.0	2.923
372.2	2.907
372.4	3.209
372.6	3.099
372.8	3.058
373.0	2.853
373.2	2.707
373.4	3.073
373.6	3.335
373.8	3.192
374.0	3.060
374.2	3.013
374.4	2.939
374.6	3.234
374.8	3.267
375.0	3.113
375.2	3.231
375.4	3.528
375.6	3.626
375.8	3.349
376.0	3.135
376.2	2.927
376.4	3.249
376.6	3.405
376.8	3.668
377.0	3.632
377.2	3.370
377.4	3.153
377.6	2.971
377.8	2.579
378.0	2.655
378.2	2.962
378.4	2.755
378.6	3.080
378.8	3.309
379.0	3.108
379.2	3.125
379.4	3.392
379.6	3.006
379.8	3.110
380.0	3.024
380.2	2.827
380.4	2.781
380.6	3.262
380.8	3.401
381.0	3.521
381.2	3.286
381.4	3.151
381.6	3.209
381.8	3.477
382.0	3.548
382.2	3.500
382.4	3.382
382.6	3.184
382.8	3.292
383.0	3.431
383.2	3.419
383.4	3.350
383.6	3.335
383.8	3.317
384.0	3.443
384.2	3.694
384.4	3.792
384.6	3.727
384.8	3.749
385.0	3.879
385.2	3.729
385.4	3.562
385.6	3.418
385.8	3.509
386.0	3.784
386.2	4.286
386.4	4.414
386.6	4.155
386.8	3.856
387.0	3.736
387.2	3.752
387.4	4.096
387.6	4.438
387.8	4.432
388.0	4.485
388.2	4.473
388.4	4.440
388.6	4.381
388.8	4.646
389.0	4.536
389.2	4.447
389.4	4.439
389.6	4.197
389.8	3.953
390.0	3.903
390.2	3.797
390.4	4.038
390.6	4.333
390.8	4.308
391.0	4.399
391.2	4.476
391.4	4.581
391.6	4.742
391.8	4.790
392.0	4.696
392.2	4.831
392.4	5.042
392.6	5.285
392.8	5.377
393.0	5.596
393.2	5.393
393.4	5.298
393.6	5.067
393.8	5.073
394.0	5.007
394.2	5.328
394.4	5.296
394.6	5.352
394.8	4.912
395.0	5.106
395.2	5.583
395.4	6.201
395.6	6.328
395.8	6.557
396.0	6.188
396.2	5.897
396.4	5.954
396.6	6.273
396.8	6.618
397.0	6.837
397.2	7.163
397.4	6.783
397.6	6.719
397.8	6.826
398.0	7.099
398.2	7.300
398.4	7.562
398.6	7.517
398.8	7.679
399.0	7.436
399.2	7.760
399.4	7.897
399.6	7.866
399.8	8.045
400.0	8.207
400.2	8.291
400.4	8.551
400.6	8.369
400.8	8.861
401.0	9.155
401.2	9.353
401.4	9.574
401.6	9.996
401.8	10.47
402.0	11.00
402.2	11.31
402.4	11.47
402.6	11.74
402.8	12.38
403.0	12.85
403.2	12.61
403.4	12.57
403.6	12.64
403.8	13.11
404.0	13.59
404.2	14.34
404.4	14.37
404.6	14.92
404.8	15.71
405.0	16.23
405.2	16.88
405.4	17.36
405.6	17.28
405.8	18.36
406.0	19.07
406.2	18.97
406.4	19.85
406.6	19.93
406.8	19.95
407.0	20.79
407.2	21.32
407.4	22.20
407.6	23.12
407.8	23.97
408.0	24.88
408.2	25.49
408.4	26.38
408.6	27.45
408.8	27.77
409.0	29.62
409.2	31.28
409.4	32.30
409.6	33.49
409.8	33.76
410.0	34.11
410.2	35.09
410.4	36.60
410.6	37.97
410.8	40.38
411.0	41.28
411.2	42.51
411.4	43.22
411.6	45.76
411.8	47.19
412.0	50.14
412.2	51.19
412.4	53.08
412.6	54.31
412.8	56.34
413.0	57.28
413.2	58.67
413.4	60.61
413.6	62.82
413.8	64.50
414.0	67.26
414.2	69.01
414.4	70.36
414.6	72.43
414.8	74.61
415.0	77.19
415.2	80.28
415.4	82.52
415.6	85.26
415.8	86.55
416.0	88.86
416.2	90.88
416.4	94.30
416.6	97.52
416.8	101.2
417.0	103.0
417.2	107.0
417.4	109.8
417.6	113.8
417.8	117.8
418.0	120.6
418.2	122.3
418.4	126.3
418.6	130.2
418.8	134.8
419.0	139.9
419.2	141.7
419.4	144.9
419.6	147.4
419.8	151.8
420.0	157.1
420.2	160.9
420.4	163.5
420.6	169.7
420.8	173.0
421.0	177.7
421.2	182.7
421.4	185.8
421.6	189.8
421.8	195.0
422.0	199.3
422.2	204.6
422.4	209.0
422.6	213.8
422.8	215.4
423.0	219.3
423.2	222.1
423.4	226.7
423.6	232.4
423.8	239.3
424.0	242.7
424.2	249.0
424.4	254.0
424.6	261.2
424.8	270.4
425.0	278.3
425.2	283.5
425.4	287.4
425.6	288.7
425.8	291.8
426.0	295.8
426.2	300.4
426.4	307.8
426.6	316.8
426.8	320.6
427.0	326.6
427.2	329.5
427.4	332.6
427.6	338.9
427.8	347.5
428.0	352.1
428.2	359.8
428.4	365.1
428.6	369.2
428.8	371.1
429.0	375.9
429.2	379.9
429.4	390.8
429.6	399.1
429.8	403.3
430.0	406.5
430.2	410.5
430.4	413.9
430.6	425.7
430.8	432.8
431.0	440.7
431.2	449.7
431.4	453.6
431.6	457.5
431.8	465.1
432.0	471.1
432.2	479.0
432.4	483.7
432.6	486.6
432.8	490.3
433.0	493.7
433.2	501.7
433.4	509.4
433.6	514.4
433.8	522.8
434.0	529.3
434.2	532.2
434.4	537.8
434.6	542.3
434.8	543.8
435.0	550.4
435.2	556.0
435.4	563.5
435.6	571.3
435.8	578.0
436.0	583.7
436.2	594.7
436.4	601.0
436.6	608.5
436.8	612.1
437.0	610.3
437.2	614.0
437.4	625.7
437.6	634.9
437.8	643.8
438.0	646.8
438.2	644.5
438.4	649.1
438.6	657.4
438.8	665.5
439.0	672.2
439.2	676.1
439.4	680.8
439.6	686.0
439.8	689.6
440.0	691.9
440.2	697.1
440.4	701.2
440.6	709.3
440.8	720.7
441.0	727.1
441.2	733.1
441.4	741.2
441.6	747.1
441.8	752.9
442.0	756.6
442.2	760.1
442.4	765.5
442.6	772.0
442.8	778.8
443.0	780.9
443.2	781.6
443.4	787.4
443.6	793.5
443.8	801.0
444.0	805.6
444.2	808.9
444.4	815.0
444.6	821.4
444.8	830.2
445.0	836.4
445.2	843.4
445.4	847.9
445.6	849.8
445.8	852.3
446.0	856.8
446.2	864.2
446.4	875.6
446.6	882.2
446.8	887.0
447.0	888.2
447.2	894.6
447.4	906.3
447.6	911.0
447.8	914.0
448.0	915.2
448.2	914.6
448.4	926.5
448.6	935.6
448.8	939.7
449.0	947.4
449.2	955.3
449.4	962.4
449.6	971.3
449.8	976.2
450.0	976.1
450.2	981.6
450.4	994.1
450.6	999.6
450.8	1007
451.0	1010
451.2	1010
451.4	1018
451.6	1028
451.8	1032
452.0	1041
452.2	1049
452.4	1058
452.6	1066
452.8	1077
453.0	1081
453.2	1085
453.4	1094
453.6	1099
453.8	1100
454.0	1111
454.2	1117
454.4	1125
454.6	1137
454.8	1145
455.0	1155
455.2	1167
455.4	1169
455.6	1176
455.8	1185
456.0	1191
456.2	1202
456.4	1208
456.6	1212
456.8	1220
457.0	1231
457.2	1237
457.4	1243
457.6	1247
457.8	1260
458.0	1265
458.2	1275
458.4	1285
458.6	1291
458.8	1300
459.0	1312
459.2	1319
459.4	1324
459.6	1337
459.8	1345
460.0	1361
460.2	1374
460.4	1389
460.6	1399
460.8	1404
461.0	1404
461.2	1410
461.4	1417
461.6	1429
461.8	1443
462.0	1453
462.2	1458
462.4	1467
462.6	1474
462.8	1481
463.0	1486
463.2	1500
463.4	1508
463.6	1520
463.8	1532
464.0	1546
464.2	1558
464.4	1569
464.6	1575
464.8	1578
465.0	1584
465.2	1591
465.4	1599
465.6	1606
465.8	1611
466.0	1618
466.2	1633
466.4	1650
466.6	1661
466.8	1670
467.0	1674
467.2	1680
467.4	1693
467.6	1706
467.8	1712
468.0	1726
468.2	1736
468.4	1744
468.6	1751
468.8	1748
469.0	1749
469.2	1764
469.4	1770
469.6	1777
469.8	1788
470.0	1797
470.2	1814
470.4	1826
470.6	1830
470.8	1835
471.0	1842
471.2	1851
471.4	1865
471.6	1873
471.8	1882
472.0	1897
472.2	1907
472.4	1911
472.6	1912
472.8	1916
473.0	1916
473.2	1928
473.4	1933
473.6	1942
473.8	1950
474.0	1966
474.2	1971
474.4	1981
474.6	1983
474.8	1989
475.0	1996
475.2	2011
475.4	2026
475.6	2036
475.8	2043
476.0	2045
476.2	2047
476.4	2048
476.6	2055
476.8	2061
477.0	2071
477.2	2078
477.4	2086
477.6	2088
477.8	2094
478.0	2101
478.2	2104
478.4	2107
478.6	2115
478.8	2125
479.0	2137
479.2	2147
479.4	2147
479.6	2152
479.8	2151
480.0	2160
480.2	2166
480.4	2165
480.6	2168
480.8	2184
481.0	2193
481.2	2203
481.4	2214
481.6	2204
481.8	2196
482.0	2200
482.2	2206
482.4	2213
482.6	2230
482.8	2237
483.0	2242
483.2	2247
483.4	2256
483.6	2262
483.8	2262
484.0	2262
484.2	2260
484.4	2269
484.6	2282
484.8	2283
485.0	2283
485.2	2281
485.4	2281
485.6	2296
485.8	2308
486.0	2303
486.2	2301
486.4	2304
486.6	2305
486.8	2315
487.0	2320
487.2	2317
487.4	2313
487.6	2318
487.8	2321
488.0	2331
488.2	2339
488.4	2343
488.6	2344
488.8	2347
489.0	2346
489.2	2347
489.4	2345
489.6	2346
489.8	2342
490.0	2344
490.2	2345
490.4	2352
490.6	2355
490.8	2360
491.0	2361
491.2	2367
491.4	2371
491.6	2369
491.8	2366
492.0	2361
492.2	2357
492.4	2357
492.6	2357
492.8	2355
493.0	2363
493.2	2364
493.4	2359
493.6	2351
493.8	2350
494.0	2362
494.2	2368
494.4	2373
494.6	2372
494.8	2362
495.0	2357
495.2	2363
495.4	2353
495.6	2351
495.8	2347
496.0	2339
496.2	2339
496.4	2340
496.6	2338
496.8	2340
497.0	2341
497.2	2332
497.4	2337
497.6	2338
497.8	2333
498.0	2333
498.2	2326
498.4	2322
498.6	2325
498.8	2335
499.0	2331
499.2	2330
499.4	2327
499.6	2326
499.8	2316
500.0	2307
500.2	2293
500.4	2297
500.6	2305
500.8	2308
501.0	2306
501.2	2293
501.4	2274
501.6	2267
501.8	2266
502.0	2267
502.2	2274
502.4	2278
502.6	2276
502.8	2275
503.0	2277
503.2	2265
503.4	2253
503.6	2245
503.8	2232
504.0	2226
504.2	2223
504.4	2215
504.6	2215
504.8	2222
505.0	2217
505.2	2214
505.4	2207
505.6	2200
505.8	2193
506.0	2194
506.2	2185
506.4	2185
506.6	2185
506.8	2185
507.0	2176
507.2	2167
507.4	2155
507.6	2146
507.8	2139
508.0	2141
508.2	2142
508.4	2144
508.6	2146
508.8	2141
509.0	2131
509.2	2125
509.4	2117
509.6	2109
509.8	2107
510.0	2105
510.2	2097
510.4	2095
510.6	2084
510.8	2071
511.0	2070
511.2	2074
511.4	2075
511.6	2073
511.8	2061
512.0	2049
512.2	2050
512.4	2047
512.6	2045
512.8	2034
513.0	2025
513.2	2021
513.4	2024
513.6	2014
513.8	2011
514.0	2004
514.2	2002
514.4	1998
514.6	1990
514.8	1976
515.0	1970
515.2	1958
515.4	1957
515.6	1960
515.8	1960
516.0	1961
516.2	1956
516.4	1942
516.6	1930
516.8	1923
517.0	1918
517.2	1915
517.4	1912
517.6	1907
517.8	1898
518.0	1893
518.2	1889
518.4	1886
518.6	1883
518.8	1879
519.0	1875
519.2	1869
519.4	1862
519.6	1855
519.8	1845
520.0	1841
520.2	1829
520.4	1824
520.6	1820
520.8	1810
521.0	1806
521.2	1806
521.4	1799
521.6	1798
521.8	1792
522.0	1780
522.2	1775
522.4	1772
522.6	1767
522.8	1763
523.0	1755
523.2	1750
523.4	1738
523.6	1736
523.8	1739
524.0	1738
524.2	1732
524.4	1723
524.6	1706
524.8	1698
525.0	1702
525.2	1701
525.4	1702
525.6	1699
525.8	1696
526.0	1691
526.2	1686
526.4	1681
526.6	1677
526.8	1668
527.0	1660
527.2	1653
527.4	1641
527.6	1640
527.8	1647
528.0	1645
528.2	1634
528.4	1625
528.6	1614
528.8	1608
529.0	1611
529.2	1612
529.4	1600
529.6	1599
529.8	1597
530.0	1594
530.2	1589
530.4	1588
530.6	1579
530.8	1574
531.0	1567
531.2	1563
531.4	1563
531.6	1561
531.8	1558
532.0	1545
532.2	1537
532.4	1532
532.6	1529
532.8	1525
533.0	1526
533.2	1516
533.4	1516
533.6	1508
533.8	1497
534.0	1488
534.2	1479
534.4	1477
534.6	1481
534.8	1481
535.0	1477
535.2	1469
535.4	1455
535.6	1453
535.8	1454
536.0	1454
536.2	1447
536.4	1439
536.6	1430
536.8	1426
537.0	1425
537.2	1417
537.4	1412
537.6	1408
537.8	1403
538.0	1400
538.2	1396
538.4	1382
538.6	1373
538.8	1366
539.0	1369
539.2	1372
539.4	1373
539.6	1368
539.8	1355
540.0	1340
540.2	1336
540.4	1330
540.6	1329
540.8	1330
541.0	1326
541.2	1330
541.4	1324
541.6	1312
541.8	1305
542.0	1299
542.2	1290
542.4	1290
542.6	1283
542.8	1280
543.0	1279
543.2	1275
543.4	1264
543.6	1251
543.8	1248
544.0	1246
544.2	1239
544.4	1239
544.6	1235
544.8	1227
545.0	1223
545.2	1219
545.4	1212
545.6	1210
545.8	1206
546.0	1201
546.2	1193
546.4	1190
546.6	1189
546.8	1179
547.0	1173
547.2	1170
547.4	1166
547.6	1158
547.8	1156
548.0	1146
548.2	1140
548.4	1137
548.6	1131
548.8	1122
549.0	1115
549.2	1112
549.4	1107
549.6	1109
549.8	1102
550.0	1095
550.2	1087
550.4	1085
550.6	1079
550.8	1081
551.0	1074
551.2	1069
551.4	1062
551.6	1057
551.8	1049
552.0	1045
552.2	1036
552.4	1034
552.6	1029
552.8	1027
553.0	1020
553.2	1016
553.4	1010
553.6	1008
553.8	1004
554.0	998.7
554.2	994.5
554.4	993.2
554.6	987.3
554.8	980.8
555.0	975.3
555.2	969.7
555.4	966.4
555.6	967.3
555.8	962.1
556.0	958.5
556.2	952.8
556.4	947.1
556.6	938.2
556.8	933.6
557.0	929.7
557.2	924.1
557.4	921.2
557.6	921.9
557.8	918.8
558.0	917.4
558.2	911.2
558.4	900.9
558.6	893.9
558.8	882.8
559.0	877.1
559.2	874.1
559.4	870.6
559.6	872.6
559.8	872.5
560.0	862.8
560.2	860.1
560.4	855.5
560.6	852.6
560.8	849.9
561.0	845.1
561.2	840.8
561.4	838.7
561.6	833.9
561.8	828.4
562.0	820.8
562.2	813.3
562.4	812.4
562.6	812.3
562.8	806.8
563.0	807.0
563.2	805.7
563.4	802.1
563.6	799.0
563.8	792.4
564.0	784.1
564.2	779.9
564.4	777.7
564.6	776.1
564.8	771.5
565.0	769.9
565.2	763.9
565.4	756.1
565.6	753.5
565.8	749.2
566.0	745.3
566.2	742.8
566.4	738.0
566.6	733.6
566.8	733.5
567.0	732.5
567.2	732.7
567.4	726.3
567.6	721.2
567.8	714.1
568.0	704.7
568.2	701.8
568.4	696.3
568.6	691.1
568.8	690.2
569.0	689.9
569.2	688.7
569.4	692.9
569.6	689.7
569.8	684.7
570.0	678.7
570.2	669.9
570.4	661.1
570.6	659.9
570.8	656.9
571.0	657.6
571.2	658.2
571.4	655.8
571.6	649.5
571.8	648.5
572.0	643.6
572.2	639.5
572.4	636.8
572.6	630.6
572.8	624.0
573.0	625.1
573.2	621.1
573.4	618.9
573.6	616.8
573.8	615.1
574.0	610.7
574.2	609.4
574.4	605.8
574.6	603.2
574.8	598.9
575.0	592.6
575.2	590.0
575.4	591.2
575.6	591.0
575.8	586.4
576.0	584.3
576.2	577.2
576.4	574.7
576.6	575.7
576.8	572.2
577.0	566.4
577.2	564.9
577.4	560.5
577.6	554.9
577.8	552.7
578.0	549.9
578.2	548.4
578.4	546.5
578.6	544.0
578.8	540.7
579.0	540.8
579.2	538.5
579.4	540.2
579.6	537.1
579.8	534.3
580.0	528.9
580.2	526.4
580.4	521.7
580.6	520.3
580.8	514.9
581.0	510.9
581.2	503.6
581.4	499.9
581.6	500.9
581.8	503.9
582.0	503.3
582.2	505.8
582.4	501.5
582.6	497.6
582.8	494.7
583.0	490.1
583.2	484.3
583.4	479.9
583.6	478.0
583.8	477.6
584.0	476.1
584.2	472.4
584.4	468.4
584.6	463.9
584.8	464.5
585.0	462.9
585.2	462.5
585.4	455.3
585.6	452.5
585.8	451.9
586.0	450.9
586.2	448.5
586.4	450.7
586.6	449.3
586.8	449.3
587.0	444.5
587.2	438.0
587.4	429.8
587.6	428.0
587.8	426.3
588.0	422.5
588.2	418.3
588.4	418.4
588.6	415.7
588.8	416.7
589.0	415.6
589.2	416.1
589.4	415.4
589.6	411.9
589.8	408.7
590.0	404.5
590.2	402.2
590.4	401.6
590.6	398.6
590.8	391.2
591.0	387.5
591.2	387.9
591.4	389.8
591.6	388.4
591.8	386.8
592.0	385.5
592.2	380.7
592.4	379.2
592.6	375.1
592.8	372.8
593.0	370.3
593.2	370.4
593.4	368.8
593.6	365.7
593.8	362.1
594.0	364.5
594.2	360.8
594.4	358.6
594.6	356.3
594.8	352.4
595.0	351.9
595.2	353.3
595.4	349.4
595.6	347.0
595.8	346.1
596.0	342.7
596.2	343.1
596.4	341.8
596.6	339.4
596.8	338.4
597.0	338.0
597.2	334.5
597.4	332.3
597.6	331.2
597.8	328.5
598.0	327.4
598.2	324.6
598.4	322.2
598.6	318.7
598.8	316.6
599.0	310.2
599.2	308.2
599.4	306.4
599.6	307.2
599.8	308.2
600.0	307.5
600.2	303.9
600.4	302.5
600.6	301.3
600.8	301.6
601.0	300.4
601.2	298.8
601.4	297.1
601.6	293.6
601.8	292.1
602.0	291.3
602.2	286.9
602.4	286.6
602.6	287.0
602.8	283.7
603.0	280.5
603.2	279.4
603.4	276.8
603.6	277.2
603.8	275.9
604.0	273.2
604.2	271.3
604.4	269.9
604.6	267.5
604.8	265.1
605.0	262.9
605.2	262.6
605.4	264.2
605.6	261.1
605.8	258.4
606.0	257.2
606.2	254.7
606.4	254.3
606.6	252.4
606.8	250.0
607.0	247.6
607.2	246.6
607.4	243.2
607.6	241.4
607.8	239.1
608.0	239.0
608.2	238.8
608.4	237.2
608.6	237.1
608.8	235.1
609.0	232.1
609.2	230.6
609.4	230.1
609.6	228.5
609.8	228.6
610.0	228.6
610.2	227.5
610.4	227.7
610.6	225.0
610.8	222.0
611.0	219.3
611.2	218.4
611.4	217.4
611.6	216.1
611.8	212.3
612.0	210.9
612.2	210.6
612.4	211.1
612.6	210.7
612.8	209.6
613.0	207.6
613.2	206.9
613.4	204.8
613.6	204.5
613.8	200.9
614.0	197.9
614.2	197.4
614.4	196.3
614.6	195.8
614.8	198.4
615.0	197.5
615.2	196.7
615.4	197.1
615.6	193.6
615.8	193.0
616.0	193.0
616.2	191.6
616.4	189.7
616.6	188.5
616.8	185.7
617.0	185.6
617.2	184.0
617.4	183.1
617.6	180.7
617.8	180.6
618.0	180.8
618.2	179.4
618.4	177.5
618.6	176.1
618.8	174.8
619.0	176.2
619.2	176.4
619.4	173.2
619.6	171.8
619.8	168.5
620.0	166.1
620.2	165.3
620.4	164.9
620.6	164.8
620.8	166.3
621.0	165.7
621.2	163.9
621.4	161.3
621.6	159.7
621.8	161.2
622.0	161.6
622.2	162.3
622.4	162.6
622.6	160.3
622.8	157.5
623.0	154.8
623.2	151.1
623.4	148.8
623.6	149.4
623.8	148.7
624.0	148.8
624.2	149.8
624.4	148.3
624.6	146.6
624.8	144.5
625.0	141.2
625.2	140.3
625.4	142.0
625.6	142.2
625.8	143.3
626.0	142.9
626.2	140.7
626.4	138.8
626.6	136.4
626.8	135.2
627.0	134.9
627.2	135.8
627.4	135.8
627.6	135.6
627.8	134.6
628.0	133.7
628.2	131.4
628.4	130.5
628.6	129.8
628.8	130.1
629.0	130.3
629.2	129.6
629.4	128.2
629.6	127.4
629.8	125.4
630.0	123.4
630.2	122.3
630.4	121.0
630.6	121.2
630.8	120.9
631.0	120.2
631.2	120.5
631.4	120.3
631.6	119.7
631.8	118.7
632.0	116.3
632.2	113.8
632.4	113.3
632.6	113.0
632.8	112.3
633.0	111.7
633.2	111.8
633.4	110.8
633.6	110.7
633.8	109.9
634.0	107.7
634.2	105.3
634.4	105.4
634.6	104.4
634.8	105.0
635.0	105.2
635.2	103.8
635.4	103.1
635.6	103.0
635.8	100.7
636.0	101.1
636.2	101.7
636.4	101.3
636.6	101.8
636.8	100.3
637.0	98.95
637.2	99.35
637.4	97.94
637.6	97.39
637.8	95.83
638.0	93.19
638.2	92.05
638.4	91.63
638.6	91.65
638.8	92.25
639.0	92.43
639.2	92.00
639.4	91.06
639.6	89.47
639.8	88.56
640.0	86.70
640.2	85.91
640.4	86.89
640.6	87.65
640.8	87.86
641.0	87.34
641.2	85.64
641.4	82.99
641.6	82.64
641.8	81.90
642.0	82.11
642.2	82.30
642.4	82.62
642.6	82.24
642.8	83.66
643.0	82.98
643.2	81.78
643.4	79.63
643.6	78.81
643.8	78.08
644.0	79.03
644.2	78.09
644.4	77.54
644.6	75.51
644.8	75.03
645.0	74.18
645.2	75.80
645.4	76.04
645.6	75.68
645.8	72.91
646.0	71.75
646.2	69.87
646.4	70.20
646.6	71.32
646.8	72.27
647.0	71.54
647.2	71.85
647.4	70.47
647.6	69.75
647.8	70.49
648.0	69.75
648.2	68.17
648.4	67.17
648.6	66.71
648.8	68.20
649.0	68.87
649.2	66.90
649.4	65.31
649.6	63.28
649.8	62.99
650.0	64.30
650.2	63.89
650.4	62.70
650.6	62.14
650.8	61.20
651.0	61.54
651.2	61.99
651.4	62.29
651.6	62.07
651.8	61.21
652.0	60.32
652.2	60.36
652.4	60.94
652.6	60.48
652.8	60.56
653.0	59.20
653.2	58.38
653.4	58.94
653.6	60.25
653.8	59.12
654.0	59.64
654.2	57.97
654.4	56.53
654.6	56.23
654.8	56.12
655.0	55.27
655.2	55.64
655.4	54.58
655.6	53.22
655.8	52.52
656.0	52.48
656.2	52.80
656.4	52.80
656.6	52.00
656.8	51.43
657.0	50.86
657.2	50.23
657.4	49.60
657.6	49.02
657.8	48.45
658.0	49.54
658.2	50.35
658.4	50.57
658.6	51.21
658.8	50.03
659.0	48.03
659.2	46.61
659.4	45.85
659.6	45.72
659.8	47.25
660.0	46.91
660.2	46.59
660.4	46.23
660.6	46.50
660.8	45.31
661.0	45.30
661.2	44.51
661.4	44.57
661.6	44.68
661.8	44.03
662.0	43.08
662.2	42.57
662.4	42.48
662.6	42.60
662.8	42.17
663.0	41.35
663.2	40.72
663.4	39.95
663.6	40.97
663.8	41.51
664.0	41.58
664.2	42.06
664.4	41.45
664.6	41.18
664.8	41.24
665.0	40.68
665.2	38.93
665.4	38.25
665.6	37.85
665.8	38.45
666.0	37.84
666.2	37.79
666.4	36.68
666.6	36.68
666.8	36.82
667.0	37.04
667.2	36.06
667.4	36.02
667.6	35.42
667.8	35.65
668.0	35.29
668.2	35.57
668.4	35.45
668.6	34.56
668.8	34.37
669.0	34.49
669.2	33.40
669.4	32.81
669.6	33.25
669.8	33.04
670.0	34.02
670.2	34.66
670.4	33.92
670.6	32.98
670.8	32.25
671.0	32.09
671.2	31.98
671.4	31.88
671.6	31.86
671.8	31.17
672.0	29.49
672.2	29.83
672.4	30.57
672.6	31.21
672.8	31.47
673.0	30.44
673.2	29.88
673.4	29.56
673.6	30.12
673.8	29.60
674.0	28.86
674.2	28.15
674.4	29.25
674.6	29.29
674.8	28.72
675.0	27.93
675.2	27.29
675.4	27.79
675.6	29.35
675.8	29.19
676.0	27.66
676.2	26.31
676.4	25.37
676.6	26.09
676.8	26.55
677.0	26.31
677.2	25.79
677.4	25.31
677.6	25.33
677.8	25.39
678.0	25.75
678.2	25.86
678.4	25.25
678.6	25.35
678.8	25.44
679.0	25.80
679.2	26.53
679.4	26.34
679.6	25.09
679.8	24.03
680.0	23.91

