Sample:	'20211010A(EM)
File name:	G-CDs 9 900.FDS
Run date:	'16:54:56, 06/10/2023
Operator:	Administrator
Comment:	'

Instrument
Model:	F-4700 FL Spectrophotometer
Serial number:	2019-001
ROM Version:	5J24010 00

Instrument parameters
Measurement type:	Wavelength scan
Scan mode:	Emission
Data mode:	Fluorescence
EX WL:	400.0 nm
EM  Start WL:	420.0 nm
EM  End WL:	800.0 nm
Scan speed:	1200 nm/min
Delay:	0.0 s
EX Slit:	10.0 nm
EM Slit:	10.0 nm
PMT Voltage:	450 V
Response:	0.002 s
Corrected spectra:	Off
Shutter control:	On

Processing performed
Savitsky-Golay smoothed
Smoothing order:	3
Number of points:	7
Number of times:	1

Peak integration
Integration method:	Rectangular
Sensitivity:	1
Threshold:	1.000

Peaks
No.	Start(nm)	Apex(nm)	End(nm)	Height(Data)	Valley(nm)	Valley(Data)
1	420.0	424.6	425.4	14.29	425.4	13.23
2	425.4	546.2	783.0	6758	783.0	6.151

Data points
nm	Data
420.0	13.76
420.2	13.33
420.4	13.25
420.6	13.36
420.8	13.24
421.0	13.40
421.2	13.71
421.4	13.76
421.6	14.17
421.8	14.08
422.0	13.64
422.2	13.57
422.4	13.35
422.6	13.27
422.8	13.29
423.0	13.19
423.2	13.30
423.4	13.68
423.6	13.80
423.8	13.96
424.0	14.03
424.2	14.06
424.4	14.19
424.6	14.29
424.8	13.94
425.0	13.60
425.2	13.43
425.4	13.23
425.6	13.23
425.8	13.55
426.0	13.69
426.2	13.98
426.4	14.12
426.6	13.83
426.8	13.70
427.0	13.91
427.2	14.08
427.4	14.08
427.6	14.38
427.8	14.19
428.0	13.89
428.2	13.81
428.4	13.61
428.6	13.62
428.8	14.06
429.0	14.47
429.2	14.49
429.4	14.56
429.6	14.46
429.8	14.37
430.0	14.23
430.2	14.50
430.4	14.41
430.6	14.48
430.8	14.59
431.0	14.59
431.2	14.58
431.4	14.97
431.6	14.81
431.8	14.82
432.0	14.86
432.2	15.07
432.4	15.11
432.6	15.51
432.8	15.36
433.0	15.54
433.2	15.61
433.4	15.40
433.6	15.25
433.8	15.37
434.0	15.54
434.2	16.25
434.4	16.53
434.6	16.49
434.8	16.78
435.0	16.80
435.2	16.98
435.4	17.11
435.6	17.17
435.8	17.21
436.0	17.37
436.2	17.19
436.4	17.52
436.6	17.76
436.8	18.06
437.0	18.35
437.2	18.56
437.4	18.34
437.6	18.86
437.8	19.21
438.0	19.45
438.2	19.79
438.4	20.06
438.6	20.13
438.8	20.78
439.0	21.21
439.2	21.63
439.4	21.93
439.6	21.98
439.8	21.82
440.0	22.06
440.2	22.29
440.4	23.02
440.6	23.75
440.8	24.15
441.0	23.90
441.2	24.14
441.4	24.28
441.6	24.78
441.8	25.40
442.0	26.03
442.2	25.89
442.4	26.54
442.6	27.01
442.8	27.85
443.0	28.24
443.2	28.61
443.4	28.61
443.6	29.22
443.8	29.61
444.0	30.36
444.2	30.47
444.4	30.35
444.6	30.73
444.8	31.42
445.0	32.10
445.2	32.71
445.4	33.14
445.6	33.51
445.8	34.08
446.0	34.35
446.2	34.99
446.4	35.52
446.6	36.16
446.8	36.59
447.0	37.08
447.2	36.99
447.4	37.12
447.6	37.31
447.8	37.76
448.0	38.16
448.2	39.22
448.4	40.21
448.6	41.07
448.8	41.48
449.0	41.98
449.2	42.22
449.4	42.21
449.6	42.71
449.8	43.41
450.0	43.61
450.2	44.24
450.4	44.71
450.6	44.83
450.8	45.63
451.0	45.89
451.2	45.85
451.4	45.92
451.6	46.15
451.8	46.73
452.0	47.50
452.2	47.93
452.4	48.26
452.6	48.11
452.8	48.44
453.0	48.84
453.2	48.74
453.4	49.23
453.6	49.73
453.8	50.27
454.0	50.65
454.2	50.49
454.4	49.81
454.6	49.73
454.8	50.12
455.0	50.65
455.2	51.19
455.4	51.51
455.6	51.61
455.8	51.56
456.0	51.33
456.2	50.99
456.4	51.13
456.6	51.35
456.8	51.65
457.0	51.94
457.2	52.05
457.4	51.79
457.6	51.64
457.8	52.00
458.0	52.42
458.2	52.99
458.4	53.45
458.6	53.53
458.8	53.62
459.0	53.69
459.2	53.73
459.4	53.66
459.6	53.68
459.8	54.05
460.0	54.30
460.2	54.11
460.4	54.06
460.6	54.01
460.8	54.36
461.0	54.54
461.2	55.11
461.4	55.35
461.6	55.34
461.8	55.26
462.0	55.36
462.2	55.14
462.4	55.34
462.6	55.91
462.8	56.45
463.0	56.82
463.2	56.96
463.4	57.16
463.6	57.25
463.8	57.74
464.0	58.18
464.2	58.75
464.4	59.46
464.6	60.06
464.8	60.87
465.0	61.69
465.2	61.76
465.4	61.81
465.6	62.25
465.8	62.47
466.0	63.45
466.2	64.79
466.4	66.10
466.6	66.62
466.8	67.80
467.0	68.01
467.2	68.60
467.4	69.27
467.6	70.00
467.8	70.80
468.0	72.06
468.2	72.23
468.4	73.41
468.6	74.63
468.8	75.94
469.0	77.29
469.2	78.13
469.4	78.65
469.6	80.09
469.8	82.48
470.0	84.52
470.2	85.96
470.4	87.32
470.6	89.06
470.8	90.00
471.0	92.15
471.2	93.04
471.4	94.21
471.6	95.90
471.8	98.78
472.0	100.9
472.2	103.6
472.4	105.8
472.6	107.4
472.8	108.7
473.0	110.6
473.2	112.4
473.4	115.0
473.6	118.1
473.8	120.1
474.0	122.2
474.2	124.3
474.4	126.9
474.6	130.1
474.8	133.7
475.0	136.0
475.2	138.9
475.4	141.0
475.6	144.3
475.8	146.9
476.0	150.3
476.2	153.3
476.4	156.5
476.6	158.8
476.8	162.9
477.0	166.1
477.2	169.9
477.4	173.8
477.6	177.7
477.8	180.3
478.0	183.4
478.2	186.9
478.4	190.7
478.6	195.0
478.8	200.2
479.0	203.5
479.2	206.6
479.4	210.0
479.6	213.6
479.8	217.5
480.0	223.5
480.2	228.3
480.4	232.5
480.6	237.0
480.8	241.2
481.0	244.9
481.2	249.9
481.4	253.6
481.6	258.3
481.8	264.1
482.0	270.4
482.2	274.8
482.4	280.2
482.6	283.8
482.8	289.7
483.0	295.4
483.2	302.0
483.4	305.3
483.6	310.3
483.8	314.1
484.0	320.9
484.2	327.8
484.4	336.1
484.6	341.8
484.8	347.9
485.0	353.1
485.2	359.2
485.4	364.3
485.6	370.4
485.8	377.1
486.0	385.3
486.2	392.7
486.4	400.1
486.6	405.8
486.8	412.0
487.0	418.2
487.2	424.2
487.4	431.5
487.6	439.3
487.8	446.1
488.0	454.3
488.2	461.9
488.4	469.0
488.6	477.7
488.8	485.7
489.0	494.7
489.2	502.7
489.4	509.9
489.6	518.2
489.8	527.4
490.0	536.9
490.2	549.2
490.4	558.3
490.6	566.2
490.8	574.6
491.0	584.8
491.2	595.1
491.4	605.9
491.6	617.6
491.8	628.9
492.0	638.8
492.2	650.0
492.4	659.5
492.6	668.9
492.8	681.4
493.0	694.6
493.2	706.8
493.4	718.5
493.6	729.2
493.8	740.5
494.0	754.4
494.2	769.0
494.4	783.3
494.6	796.8
494.8	810.5
495.0	824.1
495.2	838.1
495.4	850.5
495.6	861.8
495.8	876.6
496.0	891.2
496.2	907.5
496.4	922.3
496.6	938.7
496.8	953.3
497.0	969.2
497.2	985.1
497.4	1003
497.6	1017
497.8	1035
498.0	1053
498.2	1071
498.4	1089
498.6	1107
498.8	1124
499.0	1141
499.2	1161
499.4	1181
499.6	1202
499.8	1223
500.0	1243
500.2	1263
500.4	1287
500.6	1309
500.8	1330
501.0	1349
501.2	1367
501.4	1388
501.6	1412
501.8	1438
502.0	1460
502.2	1482
502.4	1506
502.6	1526
502.8	1549
503.0	1575
503.2	1600
503.4	1623
503.6	1650
503.8	1674
504.0	1701
504.2	1728
504.4	1754
504.6	1777
504.8	1803
505.0	1826
505.2	1856
505.4	1887
505.6	1915
505.8	1942
506.0	1967
506.2	1992
506.4	2020
506.6	2049
506.8	2078
507.0	2108
507.2	2135
507.4	2165
507.6	2194
507.8	2225
508.0	2252
508.2	2279
508.4	2306
508.6	2337
508.8	2370
509.0	2404
509.2	2434
509.4	2464
509.6	2493
509.8	2526
510.0	2560
510.2	2591
510.4	2618
510.6	2652
510.8	2683
511.0	2715
511.2	2747
511.4	2776
511.6	2808
511.8	2845
512.0	2878
512.2	2912
512.4	2943
512.6	2976
512.8	3008
513.0	3044
513.2	3072
513.4	3102
513.6	3129
513.8	3161
514.0	3196
514.2	3234
514.4	3269
514.6	3299
514.8	3332
515.0	3366
515.2	3403
515.4	3439
515.6	3475
515.8	3507
516.0	3539
516.2	3572
516.4	3605
516.6	3644
516.8	3681
517.0	3713
517.2	3740
517.4	3771
517.6	3803
517.8	3836
518.0	3869
518.2	3902
518.4	3933
518.6	3974
518.8	4012
519.0	4044
519.2	4078
519.4	4113
519.6	4137
519.8	4169
520.0	4201
520.2	4236
520.4	4272
520.6	4311
520.8	4337
521.0	4366
521.2	4397
521.4	4434
521.6	4468
521.8	4508
522.0	4540
522.2	4570
522.4	4596
522.6	4623
522.8	4649
523.0	4683
523.2	4712
523.4	4744
523.6	4775
523.8	4799
524.0	4828
524.2	4865
524.4	4899
524.6	4938
524.8	4972
525.0	4995
525.2	5021
525.4	5049
525.6	5075
525.8	5108
526.0	5140
526.2	5169
526.4	5198
526.6	5221
526.8	5242
527.0	5269
527.2	5299
527.4	5322
527.6	5351
527.8	5372
528.0	5400
528.2	5427
528.4	5459
528.6	5485
528.8	5515
529.0	5542
529.2	5566
529.4	5582
529.6	5604
529.8	5625
530.0	5650
530.2	5681
530.4	5711
530.6	5738
530.8	5763
531.0	5782
531.2	5805
531.4	5828
531.6	5859
531.8	5879
532.0	5899
532.2	5917
532.4	5943
532.6	5963
532.8	5989
533.0	6005
533.2	6015
533.4	6028
533.6	6048
533.8	6062
534.0	6089
534.2	6116
534.4	6132
534.6	6147
534.8	6170
535.0	6190
535.2	6221
535.4	6244
535.6	6260
535.8	6272
536.0	6281
536.2	6284
536.4	6299
536.6	6312
536.8	6330
537.0	6353
537.2	6372
537.4	6383
537.6	6397
537.8	6408
538.0	6417
538.2	6438
538.4	6459
538.6	6470
538.8	6475
539.0	6485
539.2	6498
539.4	6512
539.6	6527
539.8	6529
540.0	6531
540.2	6540
540.4	6551
540.6	6567
540.8	6586
541.0	6592
541.2	6604
541.4	6610
541.6	6613
541.8	6619
542.0	6626
542.2	6633
542.4	6642
542.6	6649
542.8	6654
543.0	6661
543.2	6668
543.4	6678
543.6	6673
543.8	6670
544.0	6669
544.2	6678
544.4	6693
544.6	6710
544.8	6711
545.0	6711
545.2	6716
545.4	6726
545.6	6739
545.8	6751
546.0	6756
546.2	6758
546.4	6752
546.6	6752
546.8	6746
547.0	6738
547.2	6736
547.4	6726
547.6	6719
547.8	6723
548.0	6723
548.2	6726
548.4	6725
548.6	6723
548.8	6724
549.0	6723
549.2	6718
549.4	6713
549.6	6714
549.8	6720
550.0	6724
550.2	6728
550.4	6719
550.6	6706
550.8	6708
551.0	6704
551.2	6698
551.4	6703
551.6	6699
551.8	6698
552.0	6692
552.2	6679
552.4	6670
552.6	6663
552.8	6657
553.0	6649
553.2	6636
553.4	6628
553.6	6629
553.8	6620
554.0	6619
554.2	6610
554.4	6604
554.6	6592
554.8	6579
555.0	6572
555.2	6573
555.4	6572
555.6	6567
555.8	6551
556.0	6534
556.2	6527
556.4	6518
556.6	6505
556.8	6501
557.0	6491
557.2	6483
557.4	6478
557.6	6478
557.8	6466
558.0	6463
558.2	6453
558.4	6433
558.6	6413
558.8	6399
559.0	6385
559.2	6368
559.4	6361
559.6	6352
559.8	6343
560.0	6330
560.2	6316
560.4	6299
560.6	6284
560.8	6277
561.0	6271
561.2	6262
561.4	6251
561.6	6236
561.8	6215
562.0	6193
562.2	6180
562.4	6170
562.6	6159
562.8	6151
563.0	6137
563.2	6122
563.4	6111
563.6	6098
563.8	6080
564.0	6060
564.2	6045
564.4	6026
564.6	6008
564.8	5996
565.0	5982
565.2	5964
565.4	5954
565.6	5934
565.8	5920
566.0	5912
566.2	5894
566.4	5877
566.6	5862
566.8	5842
567.0	5826
567.2	5817
567.4	5800
567.6	5788
567.8	5785
568.0	5768
568.2	5745
568.4	5730
568.6	5711
568.8	5699
569.0	5691
569.2	5668
569.4	5647
569.6	5627
569.8	5609
570.0	5597
570.2	5581
570.4	5565
570.6	5554
570.8	5534
571.0	5521
571.2	5504
571.4	5483
571.6	5462
571.8	5441
572.0	5414
572.2	5400
572.4	5385
572.6	5377
572.8	5368
573.0	5352
573.2	5329
573.4	5311
573.6	5286
573.8	5267
574.0	5250
574.2	5231
574.4	5214
574.6	5197
574.8	5176
575.0	5153
575.2	5138
575.4	5121
575.6	5113
575.8	5098
576.0	5082
576.2	5060
576.4	5046
576.6	5030
576.8	5019
577.0	5002
577.2	4981
577.4	4960
577.6	4934
577.8	4915
578.0	4894
578.2	4880
578.4	4866
578.6	4849
578.8	4825
579.0	4812
579.2	4789
579.4	4776
579.6	4760
579.8	4739
580.0	4719
580.2	4702
580.4	4682
580.6	4667
580.8	4650
581.0	4634
581.2	4616
581.4	4598
581.6	4580
581.8	4561
582.0	4545
582.2	4527
582.4	4508
582.6	4492
582.8	4473
583.0	4458
583.2	4444
583.4	4426
583.6	4406
583.8	4390
584.0	4375
584.2	4358
584.4	4340
584.6	4320
584.8	4296
585.0	4284
585.2	4267
585.4	4247
585.6	4234
585.8	4214
586.0	4197
586.2	4183
586.4	4162
586.6	4146
586.8	4134
587.0	4117
587.2	4095
587.4	4076
587.6	4054
587.8	4040
588.0	4029
588.2	4014
588.4	3994
588.6	3978
588.8	3957
589.0	3943
589.2	3933
589.4	3918
589.6	3903
589.8	3884
590.0	3866
590.2	3850
590.4	3835
590.6	3815
590.8	3792
591.0	3776
591.2	3762
591.4	3754
591.6	3740
591.8	3725
592.0	3709
592.2	3694
592.4	3669
592.6	3656
592.8	3637
593.0	3621
593.2	3606
593.4	3586
593.6	3570
593.8	3559
594.0	3544
594.2	3528
594.4	3513
594.6	3495
594.8	3479
595.0	3464
595.2	3447
595.4	3427
595.6	3417
595.8	3401
596.0	3387
596.2	3373
596.4	3359
596.6	3339
596.8	3330
597.0	3317
597.2	3304
597.4	3286
597.6	3272
597.8	3255
598.0	3241
598.2	3228
598.4	3215
598.6	3195
598.8	3184
599.0	3164
599.2	3146
599.4	3131
599.6	3120
599.8	3103
600.0	3088
600.2	3067
600.4	3051
600.6	3037
600.8	3027
601.0	3014
601.2	3000
601.4	2983
601.6	2967
601.8	2954
602.0	2942
602.2	2928
602.4	2915
602.6	2903
602.8	2888
603.0	2874
603.2	2858
603.4	2839
603.6	2824
603.8	2814
604.0	2797
604.2	2786
604.4	2774
604.6	2760
604.8	2744
605.0	2729
605.2	2713
605.4	2704
605.6	2692
605.8	2679
606.0	2666
606.2	2655
606.4	2643
606.6	2629
606.8	2612
607.0	2598
607.2	2585
607.4	2566
607.6	2551
607.8	2533
608.0	2522
608.2	2514
608.4	2505
608.6	2488
608.8	2479
609.0	2463
609.2	2456
609.4	2442
609.6	2426
609.8	2412
610.0	2399
610.2	2383
610.4	2371
610.6	2360
610.8	2347
611.0	2337
611.2	2322
611.4	2309
611.6	2297
611.8	2286
612.0	2271
612.2	2257
612.4	2245
612.6	2235
612.8	2225
613.0	2211
613.2	2197
613.4	2181
613.6	2170
613.8	2159
614.0	2147
614.2	2134
614.4	2122
614.6	2112
614.8	2102
615.0	2089
615.2	2079
615.4	2067
615.6	2055
615.8	2043
616.0	2027
616.2	2013
616.4	2000
616.6	1987
616.8	1978
617.0	1971
617.2	1965
617.4	1957
617.6	1944
617.8	1934
618.0	1921
618.2	1908
618.4	1898
618.6	1885
618.8	1872
619.0	1863
619.2	1853
619.4	1841
619.6	1828
619.8	1816
620.0	1802
620.2	1794
620.4	1786
620.6	1780
620.8	1771
621.0	1759
621.2	1745
621.4	1734
621.6	1723
621.8	1715
622.0	1706
622.2	1697
622.4	1685
622.6	1676
622.8	1668
623.0	1655
623.2	1642
623.4	1633
623.6	1625
623.8	1616
624.0	1610
624.2	1600
624.4	1586
624.6	1575
624.8	1566
625.0	1554
625.2	1545
625.4	1537
625.6	1527
625.8	1515
626.0	1509
626.2	1498
626.4	1488
626.6	1477
626.8	1468
627.0	1459
627.2	1449
627.4	1439
627.6	1427
627.8	1418
628.0	1412
628.2	1404
628.4	1395
628.6	1386
628.8	1374
629.0	1366
629.2	1358
629.4	1351
629.6	1343
629.8	1336
630.0	1328
630.2	1318
630.4	1307
630.6	1298
630.8	1288
631.0	1279
631.2	1271
631.4	1264
631.6	1257
631.8	1251
632.0	1243
632.2	1234
632.4	1225
632.6	1216
632.8	1208
633.0	1200
633.2	1193
633.4	1186
633.6	1180
633.8	1175
634.0	1168
634.2	1162
634.4	1155
634.6	1147
634.8	1138
635.0	1132
635.2	1122
635.4	1115
635.6	1108
635.8	1101
636.0	1094
636.2	1088
636.4	1081
636.6	1074
636.8	1064
637.0	1059
637.2	1052
637.4	1046
637.6	1040
637.8	1033
638.0	1023
638.2	1014
638.4	1007
638.6	1003
638.8	999.3
639.0	994.3
639.2	985.7
639.4	975.3
639.6	968.9
639.8	962.0
640.0	957.5
640.2	951.5
640.4	946.4
640.6	940.1
640.8	933.0
641.0	926.7
641.2	920.0
641.4	912.3
641.6	907.7
641.8	901.6
642.0	895.1
642.2	890.7
642.4	883.7
642.6	879.3
642.8	874.3
643.0	867.0
643.2	860.9
643.4	854.7
643.6	848.8
643.8	843.4
644.0	837.5
644.2	831.4
644.4	827.1
644.6	823.4
644.8	819.2
645.0	814.2
645.2	809.9
645.4	803.8
645.6	799.0
645.8	791.8
646.0	783.8
646.2	777.2
646.4	772.7
646.6	767.2
646.8	763.7
647.0	758.1
647.2	751.9
647.4	745.0
647.6	739.5
647.8	735.1
648.0	732.1
648.2	730.2
648.4	727.2
648.6	721.3
648.8	713.7
649.0	705.9
649.2	699.6
649.4	695.6
649.6	691.0
649.8	685.7
650.0	681.0
650.2	677.2
650.4	673.7
650.6	670.9
650.8	665.4
651.0	659.4
651.2	654.7
651.4	649.3
651.6	646.0
651.8	643.2
652.0	639.3
652.2	635.1
652.4	630.1
652.6	623.4
652.8	618.7
653.0	614.8
653.2	609.5
653.4	605.0
653.6	602.0
653.8	598.7
654.0	594.1
654.2	590.3
654.4	584.2
654.6	580.3
654.8	578.6
655.0	576.0
655.2	573.1
655.4	568.8
655.6	562.4
655.8	556.6
656.0	550.2
656.2	545.5
656.4	544.7
656.6	544.1
656.8	541.4
657.0	538.4
657.2	533.1
657.4	528.7
657.6	525.9
657.8	522.6
658.0	518.4
658.2	515.0
658.4	509.3
658.6	506.3
658.8	502.5
659.0	499.5
659.2	496.0
659.4	492.6
659.6	488.2
659.8	485.7
660.0	481.9
660.2	477.8
660.4	473.5
660.6	469.3
660.8	466.5
661.0	462.8
661.2	460.2
661.4	456.8
661.6	455.6
661.8	452.4
662.0	449.1
662.2	444.4
662.4	441.9
662.6	440.1
662.8	437.6
663.0	433.8
663.2	430.2
663.4	425.8
663.6	424.2
663.8	422.1
664.0	417.8
664.2	414.1
664.4	411.3
664.6	408.8
664.8	406.4
665.0	402.5
665.2	399.8
665.4	396.8
665.6	395.2
665.8	393.8
666.0	389.6
666.2	385.0
666.4	382.6
666.6	379.9
666.8	377.6
667.0	375.6
667.2	372.8
667.4	370.2
667.6	368.6
667.8	366.7
668.0	363.5
668.2	360.3
668.4	355.9
668.6	350.9
668.8	348.5
669.0	347.8
669.2	347.5
669.4	346.5
669.6	344.4
669.8	340.5
670.0	338.2
670.2	336.7
670.4	332.8
670.6	328.7
670.8	325.7
671.0	322.3
671.2	320.6
671.4	319.5
671.6	316.3
671.8	314.4
672.0	312.6
672.2	311.0
672.4	310.3
672.6	308.0
672.8	304.9
673.0	302.6
673.2	299.8
673.4	296.4
673.6	294.1
673.8	291.2
674.0	288.0
674.2	286.2
674.4	284.7
674.6	282.7
674.8	282.5
675.0	282.0
675.2	278.9
675.4	276.2
675.6	273.3
675.8	271.6
676.0	270.1
676.2	268.3
676.4	265.8
676.6	263.6
676.8	261.3
677.0	259.1
677.2	257.1
677.4	255.6
677.6	254.8
677.8	253.6
678.0	250.7
678.2	247.5
678.4	244.8
678.6	242.9
678.8	241.3
679.0	240.2
679.2	237.5
679.4	236.7
679.6	234.3
679.8	231.6
680.0	230.4
680.2	229.5
680.4	227.8
680.6	226.7
680.8	224.7
681.0	222.3
681.2	222.1
681.4	220.8
681.6	218.8
681.8	216.8
682.0	215.9
682.2	215.1
682.4	214.2
682.6	212.4
682.8	210.1
683.0	208.7
683.2	207.3
683.4	205.9
683.6	204.3
683.8	202.2
684.0	200.7
684.2	198.6
684.4	197.1
684.6	195.8
684.8	195.1
685.0	193.6
685.2	193.1
685.4	191.1
685.6	189.5
685.8	187.5
686.0	185.2
686.2	182.5
686.4	180.3
686.6	178.9
686.8	177.8
687.0	177.0
687.2	176.0
687.4	174.4
687.6	172.7
687.8	172.2
688.0	171.2
688.2	170.2
688.4	169.9
688.6	168.8
688.8	167.6
689.0	166.1
689.2	163.5
689.4	161.9
689.6	161.7
689.8	161.0
690.0	161.2
690.2	160.7
690.4	158.7
690.6	157.5
690.8	156.4
691.0	154.8
691.2	153.5
691.4	151.7
691.6	150.1
691.8	149.1
692.0	148.7
692.2	147.9
692.4	146.2
692.6	144.0
692.8	142.0
693.0	140.6
693.2	140.2
693.4	139.7
693.6	139.4
693.8	138.6
694.0	137.5
694.2	136.8
694.4	136.2
694.6	134.5
694.8	133.5
695.0	132.5
695.2	132.0
695.4	131.5
695.6	130.8
695.8	129.2
696.0	128.2
696.2	127.3
696.4	127.0
696.6	126.4
696.8	125.5
697.0	124.5
697.2	123.6
697.4	123.2
697.6	122.5
697.8	122.5
698.0	122.1
698.2	120.5
698.4	119.2
698.6	118.2
698.8	116.4
699.0	116.2
699.2	116.1
699.4	115.0
699.6	114.4
699.8	113.5
700.0	112.7
700.2	111.8
700.4	111.0
700.6	110.6
700.8	110.1
701.0	109.4
701.2	108.9
701.4	107.6
701.6	106.3
701.8	105.9
702.0	105.5
702.2	104.7
702.4	104.1
702.6	104.1
702.8	103.1
703.0	102.8
703.2	101.8
703.4	100.8
703.6	100.2
703.8	99.40
704.0	98.55
704.2	98.71
704.4	98.12
704.6	97.75
704.8	97.59
705.0	95.94
705.2	95.10
705.4	94.08
705.6	93.77
705.8	93.15
706.0	93.07
706.2	92.07
706.4	91.47
706.6	90.56
706.8	90.03
707.0	88.99
707.2	88.49
707.4	88.46
707.6	88.67
707.8	88.43
708.0	88.04
708.2	87.05
708.4	85.41
708.6	84.84
708.8	84.51
709.0	83.99
709.2	84.19
709.4	83.52
709.6	82.24
709.8	81.45
710.0	80.95
710.2	80.54
710.4	80.01
710.6	79.43
710.8	78.60
711.0	78.08
711.2	77.29
711.4	76.70
711.6	75.47
711.8	75.03
712.0	74.02
712.2	73.95
712.4	73.87
712.6	73.71
712.8	73.43
713.0	73.08
713.2	72.14
713.4	71.99
713.6	71.94
713.8	71.12
714.0	70.50
714.2	69.45
714.4	68.35
714.6	67.86
714.8	67.95
715.0	67.09
715.2	67.01
715.4	67.01
715.6	66.36
715.8	66.14
716.0	66.12
716.2	65.11
716.4	64.34
716.6	63.56
716.8	62.49
717.0	61.86
717.2	61.93
717.4	62.30
717.6	62.25
717.8	61.50
718.0	60.67
718.2	59.33
718.4	58.78
718.6	58.77
718.8	58.15
719.0	57.70
719.2	57.57
719.4	57.33
719.6	57.19
719.8	57.05
720.0	56.36
720.2	55.94
720.4	55.28
720.6	54.50
720.8	54.03
721.0	53.40
721.2	53.54
721.4	53.10
721.6	52.16
721.8	51.21
722.0	51.26
722.2	51.31
722.4	51.69
722.6	51.28
722.8	50.54
723.0	49.95
723.2	49.60
723.4	49.27
723.6	48.95
723.8	48.04
724.0	47.41
724.2	47.03
724.4	46.53
724.6	46.20
724.8	46.45
725.0	45.71
725.2	44.79
725.4	43.88
725.6	43.59
725.8	43.53
726.0	43.75
726.2	43.55
726.4	42.77
726.6	42.04
726.8	42.02
727.0	42.04
727.2	41.88
727.4	42.23
727.6	41.96
727.8	41.35
728.0	41.05
728.2	40.42
728.4	39.58
728.6	39.13
728.8	39.07
729.0	39.15
729.2	39.39
729.4	39.19
729.6	38.75
729.8	38.03
730.0	37.31
730.2	36.78
730.4	36.42
730.6	36.29
730.8	36.46
731.0	36.51
731.2	35.96
731.4	36.12
731.6	35.83
731.8	35.79
732.0	35.48
732.2	34.86
732.4	34.08
732.6	34.00
732.8	33.62
733.0	33.33
733.2	33.06
733.4	32.87
733.6	32.45
733.8	32.30
734.0	32.16
734.2	32.13
734.4	32.05
734.6	32.06
734.8	31.58
735.0	31.43
735.2	31.00
735.4	30.83
735.6	30.50
735.8	30.37
736.0	30.03
736.2	29.64
736.4	29.05
736.6	28.46
736.8	28.11
737.0	28.07
737.2	28.19
737.4	28.39
737.6	28.51
737.8	28.25
738.0	28.09
738.2	27.69
738.4	27.21
738.6	27.03
738.8	26.49
739.0	26.20
739.2	26.09
739.4	25.87
739.6	25.73
739.8	25.27
740.0	24.99
740.2	25.03
740.4	24.78
740.6	24.76
740.8	24.73
741.0	24.67
741.2	24.60
741.4	24.29
741.6	23.95
741.8	23.60
742.0	23.19
742.2	23.32
742.4	23.07
742.6	23.03
742.8	22.93
743.0	22.72
743.2	22.51
743.4	22.33
743.6	22.19
743.8	22.16
744.0	21.90
744.2	21.64
744.4	21.65
744.6	21.31
744.8	20.98
745.0	20.74
745.2	20.79
745.4	20.74
745.6	21.11
745.8	21.08
746.0	20.64
746.2	20.06
746.4	19.73
746.6	19.48
746.8	19.41
747.0	19.37
747.2	19.04
747.4	18.93
747.6	18.99
747.8	19.02
748.0	18.76
748.2	18.51
748.4	18.43
748.6	18.42
748.8	18.40
749.0	18.19
749.2	17.62
749.4	17.23
749.6	17.42
749.8	17.23
750.0	17.25
750.2	17.40
750.4	17.39
750.6	17.46
750.8	17.56
751.0	17.20
751.2	16.90
751.4	16.49
751.6	16.10
751.8	15.75
752.0	15.77
752.2	15.81
752.4	16.06
752.6	15.85
752.8	15.85
753.0	15.61
753.2	15.47
753.4	15.58
753.6	15.77
753.8	15.50
754.0	15.66
754.2	15.30
754.4	14.83
754.6	14.68
754.8	14.52
755.0	14.20
755.2	14.19
755.4	14.16
755.6	14.07
755.8	13.90
756.0	13.73
756.2	13.65
756.4	13.58
756.6	13.63
756.8	13.43
757.0	13.30
757.2	13.30
757.4	13.42
757.6	13.54
757.8	13.64
758.0	13.61
758.2	13.55
758.4	13.25
758.6	12.72
758.8	12.34
759.0	12.36
759.2	12.32
759.4	12.49
759.6	12.45
759.8	12.10
760.0	11.88
760.2	12.09
760.4	11.89
760.6	11.84
760.8	11.81
761.0	11.48
761.2	11.34
761.4	11.44
761.6	11.24
761.8	11.15
762.0	11.23
762.2	11.35
762.4	11.49
762.6	11.45
762.8	11.19
763.0	10.96
763.2	10.68
763.4	10.69
763.6	10.83
763.8	10.76
764.0	10.75
764.2	10.51
764.4	10.33
764.6	10.14
764.8	10.12
765.0	10.08
765.2	10.31
765.4	10.23
765.6	10.18
765.8	9.781
766.0	9.520
766.2	9.428
766.4	9.551
766.6	9.708
766.8	9.710
767.0	9.511
767.2	9.500
767.4	9.326
767.6	9.314
767.8	9.399
768.0	9.247
768.2	9.244
768.4	9.241
768.6	9.142
768.8	9.087
769.0	9.080
769.2	9.048
769.4	8.943
769.6	8.868
769.8	8.809
770.0	8.673
770.2	8.593
770.4	8.461
770.6	8.191
770.8	8.281
771.0	8.315
771.2	8.393
771.4	8.377
771.6	7.988
771.8	7.933
772.0	8.119
772.2	8.283
772.4	8.307
772.6	8.268
772.8	7.716
773.0	7.801
773.2	7.908
773.4	7.961
773.6	7.835
773.8	7.709
774.0	7.469
774.2	7.680
774.4	7.712
774.6	7.610
774.8	7.420
775.0	7.240
775.2	7.193
775.4	7.211
775.6	7.175
775.8	7.153
776.0	7.076
776.2	7.086
776.4	7.249
776.6	7.253
776.8	7.312
777.0	7.208
777.2	7.018
777.4	7.001
777.6	6.853
777.8	6.824
778.0	6.928
778.2	6.851
778.4	6.810
778.6	6.654
778.8	6.497
779.0	6.569
779.2	6.600
779.4	6.599
779.6	6.450
779.8	6.224
780.0	6.212
780.2	6.171
780.4	6.235
780.6	6.317
780.8	6.296
781.0	6.434
781.2	6.605
781.4	6.444
781.6	6.361
781.8	6.277
782.0	6.192
782.2	6.272
782.4	6.456
782.6	6.238
782.8	6.224
783.0	6.151
783.2	6.190
783.4	6.287
783.6	6.554
783.8	6.598
784.0	6.634
784.2	6.543
784.4	6.416
784.6	6.456
784.8	6.662
785.0	6.736
785.2	6.694
785.4	6.712
785.6	6.648
785.8	6.757
786.0	6.950
786.2	6.945
786.4	7.022
786.6	6.958
786.8	6.910
787.0	6.864
787.2	6.950
787.4	6.830
787.6	7.098
787.8	7.315
788.0	7.371
788.2	7.280
788.4	7.211
788.6	7.159
788.8	7.365
789.0	7.700
789.2	7.763
789.4	7.764
789.6	7.933
789.8	7.940
790.0	8.001
790.2	8.001
790.4	8.053
790.6	8.002
790.8	8.183
791.0	8.165
791.2	8.348
791.4	8.448
791.6	8.711
791.8	8.960
792.0	9.225
792.2	9.233
792.4	9.155
792.6	8.992
792.8	8.922
793.0	9.023
793.2	9.295
793.4	9.523
793.6	9.744
793.8	9.824
794.0	9.972
794.2	9.841
794.4	9.988
794.6	10.23
794.8	10.45
795.0	10.63
795.2	11.04
795.4	10.98
795.6	10.95
795.8	11.10
796.0	11.19
796.2	11.21
796.4	11.55
796.6	11.23
796.8	11.13
797.0	11.40
797.2	11.61
797.4	11.64
797.6	11.71
797.8	11.62
798.0	11.82
798.2	12.15
798.4	12.29
798.6	12.42
798.8	12.46
799.0	12.61
799.2	12.55
799.4	12.53
799.6	12.41
799.8	12.42
800.0	12.71

