Sample:	'20211010A(EM)
File name:	G-CDs 4 400.FDS
Run date:	'16:20:16, 06/10/2023
Operator:	Administrator
Comment:	'

Instrument
Model:	F-4700 FL Spectrophotometer
Serial number:	2019-001
ROM Version:	5J24010 00

Instrument parameters
Measurement type:	Wavelength scan
Scan mode:	Emission
Data mode:	Fluorescence
EX WL:	400.0 nm
EM  Start WL:	420.0 nm
EM  End WL:	800.0 nm
Scan speed:	1200 nm/min
Delay:	0.0 s
EX Slit:	10.0 nm
EM Slit:	10.0 nm
PMT Voltage:	460 V
Response:	0.002 s
Corrected spectra:	Off
Shutter control:	On

Processing performed
Savitsky-Golay smoothed
Smoothing order:	3
Number of points:	7
Number of times:	1

Peak integration
Integration method:	Rectangular
Sensitivity:	1
Threshold:	1.000

Peaks
No.	Start(nm)	Apex(nm)	End(nm)	Height(Data)	Valley(nm)	Valley(Data)
1	420.0	543.0	544.4	8135	544.4	8126
2	544.4	544.8	778.6	8154	778.6	8.656

Data points
nm	Data
420.0	103.7
420.2	103.9
420.4	104.0
420.6	104.4
420.8	105.1
421.0	106.2
421.2	106.2
421.4	107.0
421.6	107.7
421.8	108.0
422.0	108.0
422.2	108.2
422.4	107.8
422.6	107.9
422.8	108.6
423.0	108.3
423.2	108.1
423.4	108.8
423.6	110.1
423.8	112.1
424.0	113.0
424.2	112.6
424.4	112.0
424.6	111.3
424.8	112.0
425.0	113.1
425.2	113.6
425.4	114.2
425.6	114.4
425.8	114.5
426.0	114.6
426.2	114.4
426.4	115.1
426.6	114.9
426.8	114.9
427.0	115.3
427.2	115.1
427.4	115.6
427.6	117.1
427.8	117.6
428.0	118.6
428.2	118.9
428.4	118.0
428.6	117.5
428.8	118.1
429.0	118.9
429.2	120.2
429.4	120.9
429.6	121.4
429.8	121.5
430.0	121.9
430.2	122.0
430.4	122.3
430.6	123.5
430.8	124.5
431.0	124.5
431.2	124.7
431.4	124.5
431.6	124.9
431.8	126.9
432.0	128.0
432.2	128.4
432.4	127.9
432.6	127.5
432.8	126.9
433.0	127.5
433.2	128.0
433.4	128.9
433.6	129.7
433.8	130.5
434.0	130.3
434.2	130.0
434.4	130.9
434.6	132.6
434.8	135.0
435.0	136.1
435.2	136.0
435.4	135.4
435.6	135.6
435.8	136.7
436.0	137.2
436.2	137.3
436.4	137.9
436.6	138.4
436.8	139.5
437.0	140.8
437.2	140.4
437.4	141.6
437.6	142.8
437.8	144.0
438.0	145.3
438.2	145.9
438.4	145.7
438.6	147.1
438.8	148.3
439.0	149.4
439.2	151.3
439.4	153.5
439.6	153.9
439.8	155.6
440.0	157.1
440.2	157.5
440.4	159.3
440.6	160.8
440.8	160.5
441.0	162.0
441.2	163.8
441.4	165.8
441.6	167.8
441.8	169.0
442.0	169.7
442.2	170.5
442.4	172.4
442.6	173.4
442.8	174.7
443.0	176.4
443.2	179.0
443.4	181.6
443.6	183.8
443.8	184.7
444.0	185.4
444.2	187.7
444.4	189.8
444.6	192.0
444.8	193.7
445.0	194.4
445.2	195.7
445.4	197.8
445.6	199.6
445.8	201.2
446.0	203.8
446.2	204.5
446.4	206.4
446.6	208.1
446.8	209.4
447.0	210.5
447.2	212.2
447.4	213.1
447.6	215.2
447.8	217.6
448.0	219.9
448.2	222.3
448.4	224.2
448.6	225.7
448.8	227.3
449.0	229.2
449.2	231.9
449.4	233.9
449.6	235.6
449.8	236.7
450.0	236.8
450.2	238.5
450.4	239.8
450.6	241.0
450.8	241.7
451.0	242.9
451.2	244.3
451.4	247.2
451.6	249.0
451.8	250.4
452.0	250.7
452.2	250.6
452.4	251.6
452.6	254.4
452.8	255.8
453.0	256.7
453.2	258.3
453.4	258.5
453.6	259.3
453.8	262.1
454.0	262.0
454.2	261.5
454.4	263.4
454.6	265.1
454.8	266.4
455.0	267.7
455.2	267.4
455.4	266.3
455.6	267.0
455.8	269.0
456.0	270.4
456.2	270.5
456.4	271.2
456.6	271.6
456.8	272.1
457.0	273.3
457.2	273.7
457.4	274.4
457.6	274.7
457.8	275.9
458.0	275.8
458.2	275.9
458.4	275.6
458.6	276.1
458.8	276.6
459.0	276.6
459.2	277.3
459.4	278.5
459.6	280.4
459.8	281.4
460.0	281.8
460.2	281.2
460.4	280.9
460.6	280.5
460.8	282.4
461.0	283.5
461.2	282.8
461.4	284.0
461.6	286.2
461.8	287.9
462.0	289.9
462.2	290.7
462.4	289.0
462.6	289.4
462.8	290.7
463.0	293.0
463.2	293.8
463.4	295.2
463.6	294.8
463.8	295.9
464.0	295.6
464.2	298.6
464.4	299.4
464.6	301.8
464.8	303.4
465.0	305.0
465.2	307.0
465.4	310.2
465.6	311.8
465.8	312.5
466.0	314.3
466.2	315.6
466.4	318.8
466.6	322.0
466.8	325.6
467.0	327.7
467.2	331.0
467.4	333.7
467.6	336.2
467.8	337.5
468.0	339.6
468.2	341.9
468.4	345.7
468.6	349.6
468.8	352.4
469.0	355.8
469.2	359.2
469.4	361.8
469.6	365.1
469.8	368.5
470.0	372.8
470.2	378.8
470.4	383.2
470.6	386.7
470.8	389.4
471.0	393.4
471.2	399.8
471.4	406.3
471.6	412.9
471.8	418.2
472.0	422.6
472.2	426.1
472.4	430.0
472.6	434.6
472.8	440.1
473.0	446.8
473.2	453.1
473.4	459.5
473.6	466.1
473.8	473.2
474.0	477.5
474.2	484.5
474.4	490.0
474.6	498.2
474.8	506.0
475.0	513.7
475.2	518.5
475.4	525.8
475.6	532.4
475.8	541.2
476.0	549.4
476.2	557.9
476.4	564.2
476.6	571.5
476.8	579.0
477.0	587.9
477.2	595.7
477.4	605.3
477.6	611.7
477.8	619.8
478.0	630.3
478.2	641.6
478.4	651.9
478.6	661.1
478.8	666.7
479.0	673.8
479.2	683.6
479.4	694.3
479.6	705.6
479.8	715.6
480.0	725.4
480.2	735.8
480.4	746.1
480.6	755.1
480.8	763.9
481.0	774.5
481.2	785.0
481.4	794.7
481.6	801.6
481.8	809.5
482.0	820.0
482.2	833.9
482.4	848.9
482.6	861.5
482.8	871.7
483.0	882.0
483.2	891.9
483.4	901.9
483.6	912.3
483.8	924.3
484.0	937.6
484.2	949.6
484.4	960.4
484.6	971.4
484.8	982.9
485.0	995.2
485.2	1010
485.4	1023
485.6	1035
485.8	1049
486.0	1063
486.2	1075
486.4	1086
486.6	1099
486.8	1113
487.0	1124
487.2	1136
487.4	1150
487.6	1160
487.8	1175
488.0	1191
488.2	1206
488.4	1221
488.6	1235
488.8	1248
489.0	1262
489.2	1276
489.4	1293
489.6	1310
489.8	1325
490.0	1340
490.2	1357
490.4	1372
490.6	1389
490.8	1407
491.0	1423
491.2	1435
491.4	1454
491.6	1469
491.8	1484
492.0	1502
492.2	1521
492.4	1537
492.6	1555
492.8	1571
493.0	1590
493.2	1607
493.4	1627
493.6	1644
493.8	1665
494.0	1686
494.2	1707
494.4	1724
494.6	1743
494.8	1759
495.0	1778
495.2	1801
495.4	1821
495.6	1846
495.8	1872
496.0	1892
496.2	1915
496.4	1941
496.6	1961
496.8	1985
497.0	2009
497.2	2032
497.4	2055
497.6	2077
497.8	2097
498.0	2122
498.2	2143
498.4	2168
498.6	2191
498.8	2215
499.0	2238
499.2	2264
499.4	2289
499.6	2316
499.8	2347
500.0	2373
500.2	2396
500.4	2424
500.6	2454
500.8	2487
501.0	2521
501.2	2551
501.4	2577
501.6	2598
501.8	2623
502.0	2652
502.2	2681
502.4	2713
502.6	2744
502.8	2773
503.0	2802
503.2	2835
503.4	2870
503.6	2898
503.8	2931
504.0	2961
504.2	2986
504.4	3021
504.6	3056
504.8	3087
505.0	3123
505.2	3160
505.4	3192
505.6	3230
505.8	3266
506.0	3296
506.2	3326
506.4	3361
506.6	3387
506.8	3423
507.0	3459
507.2	3497
507.4	3535
507.6	3570
507.8	3602
508.0	3634
508.2	3668
508.4	3708
508.6	3745
508.8	3778
509.0	3812
509.2	3844
509.4	3886
509.6	3931
509.8	3973
510.0	4006
510.2	4041
510.4	4077
510.6	4115
510.8	4154
511.0	4191
511.2	4224
511.4	4262
511.6	4300
511.8	4337
512.0	4372
512.2	4404
512.4	4438
512.6	4469
512.8	4506
513.0	4543
513.2	4582
513.4	4621
513.6	4659
513.8	4692
514.0	4734
514.2	4769
514.4	4805
514.6	4843
514.8	4878
515.0	4916
515.2	4954
515.4	4993
515.6	5037
515.8	5079
516.0	5112
516.2	5143
516.4	5176
516.6	5221
516.8	5267
517.0	5315
517.2	5347
517.4	5374
517.6	5404
517.8	5437
518.0	5471
518.2	5510
518.4	5542
518.6	5573
518.8	5604
519.0	5637
519.2	5667
519.4	5703
519.6	5737
519.8	5771
520.0	5807
520.2	5845
520.4	5880
520.6	5924
520.8	5955
521.0	5985
521.2	6014
521.4	6046
521.6	6083
521.8	6130
522.0	6151
522.2	6184
522.4	6213
522.6	6246
522.8	6287
523.0	6322
523.2	6344
523.4	6382
523.6	6416
523.8	6447
524.0	6484
524.2	6511
524.4	6540
524.6	6572
524.8	6600
525.0	6626
525.2	6662
525.4	6687
525.6	6716
525.8	6744
526.0	6771
526.2	6799
526.4	6822
526.6	6838
526.8	6854
527.0	6883
527.2	6911
527.4	6938
527.6	6969
527.8	6998
528.0	7021
528.2	7046
528.4	7073
528.6	7112
528.8	7151
529.0	7179
529.2	7196
529.4	7202
529.6	7220
529.8	7246
530.0	7267
530.2	7301
530.4	7323
530.6	7341
530.8	7358
531.0	7375
531.2	7399
531.4	7427
531.6	7448
531.8	7465
532.0	7482
532.2	7499
532.4	7519
532.6	7535
532.8	7551
533.0	7576
533.2	7606
533.4	7631
533.6	7654
533.8	7669
534.0	7675
534.2	7686
534.4	7699
534.6	7712
534.8	7725
535.0	7749
535.2	7768
535.4	7789
535.6	7808
535.8	7827
536.0	7833
536.2	7854
536.4	7855
536.6	7863
536.8	7873
537.0	7888
537.2	7904
537.4	7923
537.6	7930
537.8	7938
538.0	7947
538.2	7966
538.4	7981
538.6	7991
538.8	7994
539.0	7990
539.2	7990
539.4	8001
539.6	8009
539.8	8022
540.0	8033
540.2	8045
540.4	8049
540.6	8050
540.8	8055
541.0	8057
541.2	8066
541.4	8082
541.6	8096
541.8	8105
542.0	8109
542.2	8105
542.4	8105
542.6	8117
542.8	8134
543.0	8135
543.2	8130
543.4	8127
543.6	8127
543.8	8130
544.0	8133
544.2	8128
544.4	8126
544.6	8141
544.8	8154
545.0	8153
545.2	8151
545.4	8142
545.6	8131
545.8	8133
546.0	8130
546.2	8131
546.4	8137
546.6	8136
546.8	8129
547.0	8127
547.2	8121
547.4	8121
547.6	8116
547.8	8113
548.0	8106
548.2	8110
548.4	8111
548.6	8110
548.8	8115
549.0	8117
549.2	8112
549.4	8105
549.6	8098
549.8	8096
550.0	8099
550.2	8098
550.4	8090
550.6	8076
550.8	8070
551.0	8058
551.2	8043
551.4	8036
551.6	8022
551.8	8012
552.0	8010
552.2	7998
552.4	7983
552.6	7977
552.8	7966
553.0	7953
553.2	7947
553.4	7935
553.6	7917
553.8	7912
554.0	7906
554.2	7901
554.4	7905
554.6	7902
554.8	7896
555.0	7879
555.2	7866
555.4	7849
555.6	7832
555.8	7820
556.0	7811
556.2	7801
556.4	7790
556.6	7774
556.8	7764
557.0	7758
557.2	7743
557.4	7739
557.6	7721
557.8	7703
558.0	7693
558.2	7678
558.4	7658
558.6	7628
558.8	7604
559.0	7592
559.2	7587
559.4	7581
559.6	7567
559.8	7540
560.0	7522
560.2	7507
560.4	7494
560.6	7480
560.8	7470
561.0	7461
561.2	7449
561.4	7427
561.6	7404
561.8	7385
562.0	7369
562.2	7350
562.4	7330
562.6	7306
562.8	7294
563.0	7288
563.2	7281
563.4	7261
563.6	7248
563.8	7225
564.0	7216
564.2	7202
564.4	7195
564.6	7169
564.8	7145
565.0	7111
565.2	7084
565.4	7067
565.6	7048
565.8	7031
566.0	7012
566.2	6989
566.4	6970
566.6	6955
566.8	6938
567.0	6925
567.2	6897
567.4	6872
567.6	6849
567.8	6824
568.0	6814
568.2	6798
568.4	6781
568.6	6769
568.8	6751
569.0	6736
569.2	6720
569.4	6700
569.6	6677
569.8	6648
570.0	6623
570.2	6601
570.4	6583
570.6	6560
570.8	6536
571.0	6507
571.2	6485
571.4	6473
571.6	6465
571.8	6452
572.0	6427
572.2	6392
572.4	6366
572.6	6350
572.8	6332
573.0	6318
573.2	6290
573.4	6263
573.6	6250
573.8	6240
574.0	6227
574.2	6205
574.4	6176
574.6	6148
574.8	6123
575.0	6104
575.2	6088
575.4	6071
575.6	6051
575.8	6031
576.0	6012
576.2	5995
576.4	5979
576.6	5966
576.8	5941
577.0	5915
577.2	5892
577.4	5863
577.6	5839
577.8	5812
578.0	5787
578.2	5772
578.4	5755
578.6	5723
578.8	5698
579.0	5673
579.2	5644
579.4	5621
579.6	5600
579.8	5577
580.0	5566
580.2	5558
580.4	5539
580.6	5518
580.8	5499
581.0	5475
581.2	5459
581.4	5443
581.6	5425
581.8	5395
582.0	5368
582.2	5336
582.4	5318
582.6	5306
582.8	5295
583.0	5278
583.2	5257
583.4	5234
583.6	5219
583.8	5198
584.0	5174
584.2	5151
584.4	5127
584.6	5104
584.8	5084
585.0	5064
585.2	5040
585.4	5023
585.6	5007
585.8	4984
586.0	4964
586.2	4941
586.4	4916
586.6	4900
586.8	4880
587.0	4860
587.2	4840
587.4	4812
587.6	4799
587.8	4785
588.0	4766
588.2	4749
588.4	4730
588.6	4709
588.8	4695
589.0	4678
589.2	4661
589.4	4639
589.6	4621
589.8	4597
590.0	4572
590.2	4555
590.4	4536
590.6	4509
590.8	4494
591.0	4477
591.2	4457
591.4	4439
591.6	4414
591.8	4390
592.0	4371
592.2	4353
592.4	4331
592.6	4314
592.8	4294
593.0	4277
593.2	4257
593.4	4235
593.6	4213
593.8	4193
594.0	4175
594.2	4157
594.4	4146
594.6	4136
594.8	4117
595.0	4097
595.2	4078
595.4	4053
595.6	4041
595.8	4026
596.0	4009
596.2	3988
596.4	3970
596.6	3950
596.8	3935
597.0	3917
597.2	3901
597.4	3877
597.6	3860
597.8	3844
598.0	3825
598.2	3810
598.4	3789
598.6	3766
598.8	3745
599.0	3733
599.2	3717
599.4	3701
599.6	3686
599.8	3668
600.0	3645
600.2	3636
600.4	3616
600.6	3600
600.8	3584
601.0	3566
601.2	3549
601.4	3533
601.6	3514
601.8	3505
602.0	3487
602.2	3471
602.4	3452
602.6	3433
602.8	3418
603.0	3404
603.2	3386
603.4	3370
603.6	3350
603.8	3334
604.0	3322
604.2	3306
604.4	3286
604.6	3270
604.8	3252
605.0	3236
605.2	3222
605.4	3204
605.6	3182
605.8	3164
606.0	3146
606.2	3126
606.4	3109
606.6	3095
606.8	3083
607.0	3076
607.2	3063
607.4	3041
607.6	3022
607.8	3006
608.0	2992
608.2	2984
608.4	2970
608.6	2949
608.8	2931
609.0	2914
609.2	2896
609.4	2884
609.6	2868
609.8	2855
610.0	2844
610.2	2835
610.4	2821
610.6	2805
610.8	2784
611.0	2767
611.2	2751
611.4	2739
611.6	2725
611.8	2712
612.0	2696
612.2	2680
612.4	2665
612.6	2651
612.8	2637
613.0	2623
613.2	2603
613.4	2586
613.6	2572
613.8	2562
614.0	2550
614.2	2534
614.4	2519
614.6	2503
614.8	2489
615.0	2477
615.2	2460
615.4	2448
615.6	2433
615.8	2416
616.0	2405
616.2	2393
616.4	2380
616.6	2369
616.8	2355
617.0	2342
617.2	2332
617.4	2319
617.6	2301
617.8	2284
618.0	2270
618.2	2255
618.4	2243
618.6	2232
618.8	2220
619.0	2209
619.2	2194
619.4	2175
619.6	2160
619.8	2149
620.0	2143
620.2	2133
620.4	2121
620.6	2103
620.8	2087
621.0	2068
621.2	2063
621.4	2055
621.6	2047
621.8	2033
622.0	2019
622.2	2001
622.4	1994
622.6	1984
622.8	1973
623.0	1958
623.2	1947
623.4	1937
623.6	1928
623.8	1917
624.0	1902
624.2	1886
624.4	1876
624.6	1865
624.8	1853
625.0	1842
625.2	1826
625.4	1816
625.6	1805
625.8	1794
626.0	1783
626.2	1773
626.4	1757
626.6	1748
626.8	1735
627.0	1728
627.2	1721
627.4	1715
627.6	1700
627.8	1691
628.0	1676
628.2	1663
628.4	1648
628.6	1636
628.8	1627
629.0	1626
629.2	1618
629.4	1609
629.6	1597
629.8	1585
630.0	1578
630.2	1571
630.4	1559
630.6	1546
630.8	1530
631.0	1515
631.2	1507
631.4	1499
631.6	1490
631.8	1481
632.0	1475
632.2	1467
632.4	1457
632.6	1448
632.8	1435
633.0	1426
633.2	1419
633.4	1414
633.6	1402
633.8	1394
634.0	1383
634.2	1372
634.4	1363
634.6	1354
634.8	1344
635.0	1336
635.2	1329
635.4	1321
635.6	1313
635.8	1305
636.0	1297
636.2	1286
636.4	1279
636.6	1271
636.8	1260
637.0	1252
637.2	1242
637.4	1234
637.6	1227
637.8	1221
638.0	1213
638.2	1205
638.4	1196
638.6	1190
638.8	1184
639.0	1178
639.2	1171
639.4	1162
639.6	1155
639.8	1146
640.0	1138
640.2	1130
640.4	1123
640.6	1114
640.8	1108
641.0	1102
641.2	1096
641.4	1088
641.6	1081
641.8	1073
642.0	1066
642.2	1058
642.4	1051
642.6	1043
642.8	1037
643.0	1029
643.2	1021
643.4	1012
643.6	1008
643.8	1003
644.0	999.0
644.2	989.3
644.4	982.4
644.6	974.0
644.8	968.6
645.0	961.9
645.2	955.7
645.4	946.8
645.6	939.9
645.8	932.3
646.0	929.2
646.2	921.1
646.4	913.9
646.6	907.8
646.8	902.7
647.0	896.0
647.2	894.2
647.4	887.7
647.6	882.3
647.8	878.4
648.0	872.0
648.2	864.9
648.4	859.0
648.6	852.3
648.8	844.4
649.0	837.6
649.2	831.0
649.4	828.5
649.6	823.8
649.8	820.8
650.0	816.8
650.2	809.3
650.4	803.9
650.6	797.6
650.8	789.8
651.0	784.1
651.2	780.8
651.4	773.2
651.6	768.7
651.8	762.9
652.0	758.4
652.2	754.5
652.4	750.6
652.6	742.5
652.8	737.0
653.0	731.0
653.2	726.9
653.4	722.5
653.6	718.5
653.8	711.7
654.0	708.0
654.2	702.5
654.4	697.3
654.6	692.2
654.8	688.2
655.0	682.9
655.2	680.1
655.4	674.4
655.6	667.6
655.8	662.2
656.0	657.2
656.2	654.8
656.4	652.0
656.6	648.4
656.8	643.2
657.0	637.8
657.2	634.0
657.4	632.0
657.6	628.1
657.8	622.6
658.0	616.9
658.2	610.4
658.4	605.1
658.6	600.9
658.8	595.6
659.0	589.0
659.2	584.1
659.4	579.2
659.6	576.4
659.8	573.2
660.0	571.4
660.2	569.9
660.4	566.7
660.6	561.6
660.8	556.6
661.0	549.9
661.2	547.4
661.4	544.3
661.6	539.6
661.8	534.8
662.0	530.3
662.2	528.4
662.4	526.3
662.6	522.0
662.8	516.6
663.0	512.4
663.2	507.8
663.4	505.7
663.6	503.1
663.8	500.1
664.0	497.0
664.2	494.5
664.4	491.0
664.6	486.9
664.8	483.9
665.0	478.9
665.2	474.6
665.4	471.7
665.6	468.1
665.8	463.1
666.0	460.2
666.2	455.7
666.4	452.3
666.6	450.8
666.8	447.5
667.0	444.9
667.2	444.5
667.4	443.2
667.6	439.1
667.8	435.5
668.0	430.4
668.2	426.4
668.4	425.3
668.6	422.9
668.8	419.2
669.0	414.7
669.2	411.4
669.4	407.6
669.6	404.3
669.8	400.8
670.0	399.2
670.2	396.2
670.4	394.4
670.6	391.1
670.8	387.1
671.0	383.1
671.2	380.8
671.4	378.5
671.6	375.5
671.8	371.5
672.0	368.2
672.2	364.8
672.4	363.1
672.6	362.1
672.8	360.2
673.0	357.5
673.2	355.3
673.4	353.0
673.6	350.8
673.8	348.5
674.0	345.9
674.2	342.9
674.4	340.5
674.6	338.5
674.8	335.9
675.0	333.0
675.2	331.6
675.4	329.3
675.6	326.2
675.8	323.1
676.0	320.5
676.2	316.6
676.4	313.8
676.6	311.1
676.8	309.3
677.0	307.5
677.2	307.6
677.4	304.4
677.6	302.0
677.8	299.9
678.0	298.8
678.2	295.9
678.4	293.3
678.6	289.4
678.8	287.3
679.0	285.7
679.2	284.1
679.4	281.3
679.6	278.6
679.8	276.3
680.0	273.8
680.2	272.7
680.4	270.1
680.6	268.8
680.8	266.3
681.0	263.8
681.2	261.4
681.4	260.0
681.6	257.9
681.8	256.9
682.0	254.6
682.2	253.0
682.4	251.1
682.6	249.1
682.8	247.5
683.0	246.0
683.2	244.7
683.4	242.8
683.6	240.4
683.8	237.8
684.0	236.4
684.2	235.4
684.4	234.6
684.6	232.5
684.8	229.6
685.0	226.4
685.2	225.3
685.4	224.2
685.6	224.1
685.8	223.0
686.0	220.4
686.2	217.2
686.4	215.3
686.6	213.9
686.8	213.3
687.0	212.3
687.2	211.0
687.4	208.9
687.6	207.1
687.8	205.1
688.0	202.3
688.2	201.3
688.4	199.7
688.6	198.4
688.8	197.9
689.0	197.6
689.2	195.0
689.4	194.8
689.6	192.1
689.8	190.9
690.0	190.3
690.2	190.1
690.4	187.0
690.6	185.1
690.8	182.0
691.0	180.3
691.2	179.8
691.4	179.6
691.6	178.4
691.8	176.8
692.0	175.5
692.2	174.1
692.4	172.7
692.6	171.4
692.8	170.6
693.0	168.9
693.2	167.6
693.4	166.4
693.6	164.8
693.8	163.3
694.0	163.6
694.2	162.8
694.4	161.6
694.6	159.7
694.8	158.0
695.0	156.5
695.2	155.4
695.4	154.5
695.6	154.1
695.8	153.9
696.0	152.5
696.2	152.4
696.4	151.1
696.6	150.1
696.8	148.9
697.0	147.6
697.2	145.9
697.4	144.6
697.6	143.0
697.8	142.2
698.0	141.6
698.2	141.3
698.4	142.5
698.6	141.9
698.8	140.4
699.0	137.9
699.2	135.1
699.4	133.8
699.6	133.9
699.8	133.9
700.0	133.8
700.2	133.0
700.4	131.4
700.6	130.5
700.8	129.3
701.0	128.1
701.2	127.0
701.4	125.9
701.6	125.0
701.8	124.0
702.0	123.4
702.2	124.5
702.4	125.0
702.6	124.2
702.8	122.4
703.0	119.7
703.2	117.7
703.4	117.3
703.6	118.1
703.8	118.2
704.0	117.1
704.2	115.7
704.4	114.7
704.6	113.3
704.8	113.5
705.0	113.8
705.2	113.4
705.4	112.3
705.6	110.5
705.8	109.2
706.0	109.5
706.2	109.4
706.4	109.2
706.6	108.4
706.8	106.7
707.0	105.9
707.2	105.9
707.4	105.2
707.6	104.8
707.8	104.5
708.0	103.2
708.2	102.1
708.4	101.4
708.6	100.7
708.8	100.3
709.0	99.21
709.2	98.36
709.4	97.48
709.6	96.95
709.8	97.13
710.0	96.88
710.2	95.23
710.4	94.41
710.6	92.88
710.8	91.82
711.0	91.71
711.2	91.05
711.4	89.56
711.6	88.90
711.8	88.46
712.0	88.50
712.2	88.72
712.4	88.31
712.6	87.40
712.8	87.21
713.0	86.51
713.2	86.05
713.4	85.65
713.6	84.26
713.8	83.69
714.0	83.71
714.2	83.49
714.4	82.45
714.6	82.27
714.8	80.88
715.0	79.96
715.2	79.19
715.4	79.02
715.6	78.04
715.8	77.72
716.0	77.20
716.2	76.19
716.4	75.72
716.6	75.58
716.8	75.32
717.0	74.68
717.2	74.03
717.4	72.89
717.6	72.42
717.8	71.70
718.0	71.31
718.2	70.62
718.4	70.22
718.6	69.99
718.8	70.18
719.0	69.74
719.2	68.79
719.4	67.51
719.6	66.95
719.8	66.45
720.0	66.68
720.2	66.65
720.4	66.12
720.6	65.76
720.8	65.13
721.0	63.91
721.2	63.14
721.4	63.00
721.6	63.05
721.8	62.83
722.0	62.05
722.2	61.02
722.4	60.01
722.6	59.90
722.8	59.95
723.0	59.51
723.2	59.00
723.4	58.45
723.6	57.75
723.8	57.44
724.0	56.12
724.2	55.17
724.4	54.47
724.6	54.25
724.8	54.55
725.0	54.50
725.2	54.21
725.4	54.18
725.6	53.93
725.8	53.32
726.0	52.97
726.2	51.71
726.4	51.39
726.6	51.39
726.8	51.32
727.0	50.77
727.2	50.71
727.4	49.77
727.6	48.73
727.8	48.51
728.0	47.89
728.2	48.49
728.4	48.52
728.6	48.55
728.8	47.70
729.0	47.38
729.2	45.87
729.4	45.82
729.6	45.41
729.8	45.50
730.0	45.47
730.2	45.42
730.4	44.36
730.6	44.00
730.8	43.76
731.0	43.17
731.2	43.19
731.4	42.84
731.6	42.40
731.8	41.93
732.0	40.91
732.2	40.32
732.4	40.35
732.6	40.44
732.8	40.40
733.0	39.85
733.2	39.39
733.4	38.91
733.6	38.73
733.8	38.69
734.0	38.54
734.2	38.30
734.4	38.59
734.6	38.01
734.8	37.73
735.0	37.64
735.2	37.12
735.4	36.62
735.6	36.25
735.8	35.61
736.0	35.66
736.2	36.11
736.4	35.88
736.6	35.21
736.8	34.19
737.0	33.56
737.2	33.73
737.4	34.02
737.6	33.96
737.8	33.01
738.0	32.19
738.2	32.18
738.4	32.13
738.6	31.92
738.8	31.79
739.0	31.40
739.2	31.32
739.4	31.44
739.6	30.91
739.8	30.16
740.0	29.68
740.2	29.41
740.4	29.10
740.6	29.08
740.8	28.86
741.0	28.46
741.2	28.56
741.4	28.93
741.6	28.82
741.8	29.19
742.0	29.08
742.2	28.37
742.4	27.94
742.6	27.54
742.8	26.89
743.0	27.22
743.2	27.35
743.4	27.09
743.6	26.97
743.8	26.29
744.0	25.56
744.2	25.33
744.4	25.46
744.6	25.31
744.8	25.73
745.0	25.43
745.2	25.23
745.4	25.21
745.6	24.96
745.8	24.52
746.0	24.40
746.2	23.86
746.4	23.44
746.6	23.29
746.8	23.03
747.0	23.36
747.2	23.55
747.4	23.29
747.6	23.14
747.8	22.80
748.0	22.43
748.2	22.54
748.4	22.49
748.6	22.26
748.8	22.50
749.0	22.11
749.2	21.51
749.4	21.17
749.6	21.28
749.8	21.15
750.0	20.98
750.2	20.64
750.4	20.22
750.6	20.17
750.8	20.80
751.0	20.72
751.2	20.34
751.4	19.94
751.6	19.52
751.8	19.54
752.0	20.00
752.2	20.13
752.4	20.08
752.6	19.96
752.8	19.48
753.0	19.05
753.2	18.63
753.4	18.25
753.6	18.40
753.8	18.57
754.0	18.56
754.2	18.52
754.4	18.34
754.6	17.68
754.8	17.72
755.0	17.31
755.2	17.02
755.4	16.94
755.6	16.84
755.8	16.79
756.0	17.13
756.2	17.11
756.4	17.12
756.6	17.31
756.8	17.02
757.0	16.82
757.2	16.57
757.4	16.52
757.6	16.25
757.8	16.25
758.0	15.97
758.2	15.68
758.4	15.29
758.6	15.16
758.8	14.91
759.0	14.69
759.2	14.61
759.4	14.57
759.6	14.40
759.8	14.63
760.0	14.96
760.2	14.91
760.4	15.09
760.6	14.95
760.8	14.64
761.0	14.61
761.2	14.17
761.4	13.86
761.6	13.90
761.8	13.84
762.0	13.88
762.2	13.91
762.4	13.82
762.6	13.44
762.8	13.26
763.0	13.20
763.2	13.30
763.4	13.06
763.6	13.17
763.8	12.93
764.0	13.05
764.2	13.31
764.4	13.48
764.6	12.98
764.8	12.73
765.0	12.42
765.2	12.14
765.4	12.18
765.6	12.27
765.8	12.23
766.0	12.33
766.2	12.24
766.4	11.74
766.6	11.43
766.8	11.38
767.0	11.80
767.2	11.88
767.4	11.88
767.6	11.48
767.8	11.08
768.0	11.01
768.2	11.09
768.4	10.96
768.6	11.03
768.8	10.95
769.0	10.71
769.2	10.63
769.4	10.53
769.6	10.59
769.8	10.78
770.0	10.70
770.2	10.54
770.4	10.64
770.6	10.55
770.8	10.27
771.0	10.22
771.2	9.977
771.4	9.811
771.6	9.833
771.8	9.677
772.0	9.553
772.2	9.674
772.4	9.813
772.6	9.849
772.8	9.952
773.0	9.967
773.2	9.880
773.4	9.762
773.6	9.494
773.8	9.347
774.0	9.293
774.2	9.154
774.4	9.089
774.6	9.279
774.8	9.311
775.0	9.573
775.2	9.524
775.4	9.266
775.6	9.158
775.8	9.138
776.0	9.425
776.2	9.554
776.4	9.452
776.6	9.100
776.8	8.813
777.0	8.834
777.2	9.144
777.4	9.284
777.6	9.308
777.8	9.139
778.0	9.101
778.2	8.841
778.4	8.765
778.6	8.656
778.8	8.667
779.0	8.880
779.2	9.205
779.4	9.075
779.6	9.454
779.8	9.600
780.0	9.747
780.2	9.929
780.4	10.07
780.6	9.998
780.8	10.27
781.0	10.50
781.2	10.57
781.4	10.76
781.6	10.88
781.8	10.84
782.0	11.00
782.2	11.43
782.4	11.79
782.6	12.21
782.8	12.47
783.0	12.83
783.2	13.10
783.4	13.38
783.6	13.96
783.8	14.45
784.0	14.80
784.2	15.40
784.4	15.54
784.6	15.90
784.8	16.71
785.0	17.66
785.2	18.10
785.4	18.65
785.6	18.91
785.8	19.64
786.0	20.53
786.2	21.54
786.4	22.09
786.6	22.88
786.8	23.65
787.0	24.74
787.2	26.15
787.4	27.25
787.6	27.85
787.8	29.05
788.0	30.08
788.2	31.33
788.4	32.65
788.6	33.87
788.8	34.86
789.0	36.31
789.2	38.14
789.4	39.82
789.6	41.15
789.8	42.45
790.0	43.75
790.2	44.70
790.4	46.99
790.6	48.67
790.8	49.80
791.0	51.69
791.2	53.31
791.4	54.83
791.6	57.35
791.8	58.94
792.0	60.07
792.2	62.16
792.4	64.39
792.6	66.50
792.8	68.74
793.0	70.18
793.2	71.35
793.4	73.15
793.6	75.73
793.8	78.50
794.0	80.35
794.2	81.88
794.4	83.53
794.6	85.46
794.8	87.75
795.0	90.51
795.2	93.03
795.4	95.78
795.6	98.39
795.8	100.8
796.0	102.4
796.2	103.5
796.4	105.0
796.6	106.8
796.8	109.2
797.0	112.3
797.2	114.6
797.4	116.3
797.6	118.3
797.8	120.4
798.0	122.3
798.2	123.5
798.4	124.0
798.6	125.1
798.8	128.0
799.0	131.3
799.2	133.7
799.4	134.8
799.6	135.4
799.8	138.1
800.0	144.5

